fixDuration,resp.keys,resp.corr,resp.rt,pracLoop.thisRepN,pracLoop.thisTrialN,pracLoop.thisN,pracLoop.thisIndex,pracLoop.ran,pracLoop.order,cue,tar,corrAns,targOrientation,participant,session,date,expName,psychopyVersion,frameRate,instResp.keys,instResp.rt,blockLoop.thisRepN,blockLoop.thisTrialN,blockLoop.thisN,blockLoop.thisIndex,blockLoop.ran,blockLoop.order,mainLoop.thisRepN,mainLoop.thisTrialN,mainLoop.thisN,mainLoop.thisIndex,mainLoop.ran,mainLoop.order
1.25,,0,,1,0,3,1,1,2,stim/both.png,stim/congLeft.png,left,0,001,001,2019-01-24_10h23.29.279,ANT,3.0.0b12,60,,,,,,,,,,,,,,
0.8,left,1,0.379,1,0,3,0,1,2,stim/upper.png,stim/congLeft.png,left,0,001,001,2019-01-24_10h23.29.279,ANT,3.0.0b12,60,,,,,,,,,,,,,,
0.45,left,1,0.547,1,0,3,2,1,2,stim/centre.png,stim/congLeft.png,left,0,001,001,2019-01-24_10h23.29.279,ANT,3.0.0b12,60,,,,,,,,,,,,,,
1.55,right,1,0.528,,,,,,,stim/blank.png,stim/congRight.png,right,0,001,001,2019-01-24_10h23.29.279,ANT,3.0.0b12,60,space,14.336,3,0,3,0,1,2,2,0,96,11,1,95
1.4,right,1,0.729,,,,,,,stim/centre.png,stim/congLeft.png,right,180,001,001,2019-01-24_10h23.29.279,ANT,3.0.0b12,60,,,3,0,3,0,1,2,2,0,96,6,1,95
1.4,right,1,0.878,,,,,,,stim/blank.png,stim/incongRight.png,right,0,001,001,2019-01-24_10h23.29.279,ANT,3.0.0b12,60,,,3,0,3,0,1,2,2,0,96,27,1,95
1.3,,0,,,,,,,,stim/lower.png,stim/incongLeft.png,right,180,001,001,2019-01-24_10h23.29.279,ANT,3.0.0b12,60,,,3,0,3,0,1,2,2,0,96,20,1,95
1.35,right,1,0.73,,,,,,,stim/both.png,stim/incongRight.png,right,0,001,001,2019-01-24_10h23.29.279,ANT,3.0.0b12,60,,,3,0,3,0,1,2,2,0,96,25,1,95
0.95,left,1,0.596,,,,,,,stim/blank.png,stim/neutralLeft.png,left,0,001,001,2019-01-24_10h23.29.279,ANT,3.0.0b12,60,,,3,0,3,0,1,2,2,0,96,35,1,95
1.2,right,1,0.613,,,,,,,stim/centre.png,stim/incongLeft.png,right,180,001,001,2019-01-24_10h23.29.279,ANT,3.0.0b12,60,,,3,0,3,0,1,2,2,0,96,22,1,95
0.8,right,1,0.631,,,,,,,stim/centre.png,stim/incongRight.png,right,0,001,001,2019-01-24_10h23.29.279,ANT,3.0.0b12,60,,,3,0,3,0,1,2,2,0,96,26,1,95
1.25,left,1,0.497,,,,,,,stim/upper.png,stim/congLeft.png,left,0,001,001,2019-01-24_10h23.29.279,ANT,3.0.0b12,60,,,3,0,3,0,1,2,2,0,96,0,1,95
0.75,right,1,0.763,,,,,,,stim/both.png,stim/incongLeft.png,right,180,001,001,2019-01-24_10h23.29.279,ANT,3.0.0b12,60,,,3,0,3,0,1,2,2,0,96,21,1,95
0.55,left,1,0.578,,,,,,,stim/lower.png,stim/neutralRight.png,left,180,001,001,2019-01-24_10h23.29.279,ANT,3.0.0b12,60,,,3,0,3,0,1,2,2,0,96,44,1,95
1.15,right,1,0.614,,,,,,,stim/centre.png,stim/neutralLeft.png,right,180,001,001,2019-01-24_10h23.29.279,ANT,3.0.0b12,60,,,3,0,3,0,1,2,2,0,96,38,1,95
1.4,right,1,0.563,,,,,,,stim/both.png,stim/neutralRight.png,right,0,001,001,2019-01-24_10h23.29.279,ANT,3.0.0b12,60,,,3,0,3,0,1,2,2,0,96,41,1,95
0.9,left,1,0.73,,,,,,,stim/blank.png,stim/congRight.png,left,180,001,001,2019-01-24_10h23.29.279,ANT,3.0.0b12,60,,,3,0,3,0,1,2,2,0,96,15,1,95
0.75,left,1,0.547,,,,,,,stim/both.png,stim/congLeft.png,left,0,001,001,2019-01-24_10h23.29.279,ANT,3.0.0b12,60,,,3,0,3,0,1,2,2,0,96,1,1,95
0.65,right,1,0.697,,,,,,,stim/blank.png,stim/congLeft.png,right,180,001,001,2019-01-24_10h23.29.279,ANT,3.0.0b12,60,,,3,0,3,0,1,2,2,0,96,7,1,95
0.9,left,1,0.546,,,,,,,stim/both.png,stim/neutralRight.png,left,180,001,001,2019-01-24_10h23.29.279,ANT,3.0.0b12,60,,,3,0,3,0,1,2,2,0,96,45,1,95
1.2,right,1,0.463,,,,,,,stim/upper.png,stim/neutralRight.png,right,0,001,001,2019-01-24_10h23.29.279,ANT,3.0.0b12,60,,,3,0,3,0,1,2,2,0,96,40,1,95
1.3,left,1,0.465,,,,,,,stim/blank.png,stim/congLeft.png,left,0,001,001,2019-01-24_10h23.29.279,ANT,3.0.0b12,60,,,3,0,3,0,1,2,2,0,96,3,1,95
1.45,left,1,0.697,,,,,,,stim/blank.png,stim/incongLeft.png,left,0,001,001,2019-01-24_10h23.29.279,ANT,3.0.0b12,60,,,3,0,3,0,1,2,2,0,96,19,1,95
0.8,right,0,0.529,,,,,,,stim/both.png,stim/incongLeft.png,left,0,001,001,2019-01-24_10h23.29.279,ANT,3.0.0b12,60,,,3,0,3,0,1,2,2,0,96,17,1,95
0.4,right,1,0.596,,,,,,,stim/upper.png,stim/incongRight.png,right,0,001,001,2019-01-24_10h23.29.279,ANT,3.0.0b12,60,,,3,0,3,0,1,2,2,0,96,24,1,95
1.15,left,1,0.68,,,,,,,stim/blank.png,stim/neutralRight.png,left,180,001,001,2019-01-24_10h23.29.279,ANT,3.0.0b12,60,,,3,0,3,0,1,2,2,0,96,47,1,95
1.55,right,1,0.547,,,,,,,stim/centre.png,stim/congRight.png,right,0,001,001,2019-01-24_10h23.29.279,ANT,3.0.0b12,60,,,3,0,3,0,1,2,2,0,96,10,1,95
0.9,left,1,0.515,,,,,,,stim/both.png,stim/neutralLeft.png,left,0,001,001,2019-01-24_10h23.29.279,ANT,3.0.0b12,60,,,3,0,3,0,1,2,2,0,96,33,1,95
0.95,right,1,0.58,,,,,,,stim/both.png,stim/neutralLeft.png,right,180,001,001,2019-01-24_10h23.29.279,ANT,3.0.0b12,60,,,3,0,3,0,1,2,2,0,96,37,1,95
0.85,left,1,0.447,,,,,,,stim/upper.png,stim/neutralLeft.png,left,0,001,001,2019-01-24_10h23.29.279,ANT,3.0.0b12,60,,,3,0,3,0,1,2,2,0,96,32,1,95
1.3,left,1,0.462,,,,,,,stim/centre.png,stim/congLeft.png,left,0,001,001,2019-01-24_10h23.29.279,ANT,3.0.0b12,60,,,3,0,3,0,1,2,2,0,96,2,1,95
1.05,right,1,0.448,,,,,,,stim/upper.png,stim/congRight.png,right,0,001,001,2019-01-24_10h23.29.279,ANT,3.0.0b12,60,,,3,0,3,0,1,2,2,0,96,8,1,95
1.35,right,1,0.495,,,,,,,stim/lower.png,stim/neutralLeft.png,right,180,001,001,2019-01-24_10h23.29.279,ANT,3.0.0b12,60,,,3,0,3,0,1,2,2,0,96,36,1,95
0.6,left,1,0.513,,,,,,,stim/lower.png,stim/congRight.png,left,180,001,001,2019-01-24_10h23.29.279,ANT,3.0.0b12,60,,,3,0,3,0,1,2,2,0,96,12,1,95
0.95,left,1,0.663,,,,,,,stim/centre.png,stim/incongLeft.png,left,0,001,001,2019-01-24_10h23.29.279,ANT,3.0.0b12,60,,,3,0,3,0,1,2,2,0,96,18,1,95
0.9,right,1,0.463,,,,,,,stim/blank.png,stim/neutralRight.png,right,0,001,001,2019-01-24_10h23.29.279,ANT,3.0.0b12,60,,,3,0,3,0,1,2,2,0,96,43,1,95
1.35,left,1,0.596,,,,,,,stim/lower.png,stim/incongRight.png,left,180,001,001,2019-01-24_10h23.29.279,ANT,3.0.0b12,60,,,3,0,3,0,1,2,2,0,96,28,1,95
0.6,left,1,0.647,,,,,,,stim/blank.png,stim/incongRight.png,left,180,001,001,2019-01-24_10h23.29.279,ANT,3.0.0b12,60,,,3,0,3,0,1,2,2,0,96,31,1,95
1.3,right,1,0.513,,,,,,,stim/both.png,stim/congRight.png,right,0,001,001,2019-01-24_10h23.29.279,ANT,3.0.0b12,60,,,3,0,3,0,1,2,2,0,96,9,1,95
1.2,left,1,0.58,,,,,,,stim/centre.png,stim/congRight.png,left,180,001,001,2019-01-24_10h23.29.279,ANT,3.0.0b12,60,,,3,0,3,0,1,2,2,0,96,14,1,95
0.5,right,1,0.513,,,,,,,stim/blank.png,stim/neutralLeft.png,right,180,001,001,2019-01-24_10h23.29.279,ANT,3.0.0b12,60,,,3,0,3,0,1,2,2,0,96,39,1,95
0.65,left,1,0.462,,,,,,,stim/centre.png,stim/neutralLeft.png,left,0,001,001,2019-01-24_10h23.29.279,ANT,3.0.0b12,60,,,3,0,3,0,1,2,2,0,96,34,1,95
0.95,left,1,0.513,,,,,,,stim/centre.png,stim/neutralRight.png,left,180,001,001,2019-01-24_10h23.29.279,ANT,3.0.0b12,60,,,3,0,3,0,1,2,2,0,96,46,1,95
1.5,left,1,0.597,,,,,,,stim/both.png,stim/incongRight.png,left,180,001,001,2019-01-24_10h23.29.279,ANT,3.0.0b12,60,,,3,0,3,0,1,2,2,0,96,29,1,95
1.15,right,1,0.58,,,,,,,stim/centre.png,stim/neutralRight.png,right,0,001,001,2019-01-24_10h23.29.279,ANT,3.0.0b12,60,,,3,0,3,0,1,2,2,0,96,42,1,95
0.4,left,1,0.695,,,,,,,stim/both.png,stim/congRight.png,left,180,001,001,2019-01-24_10h23.29.279,ANT,3.0.0b12,60,,,3,0,3,0,1,2,2,0,96,13,1,95
1.25,right,1,0.597,,,,,,,stim/lower.png,stim/congLeft.png,right,180,001,001,2019-01-24_10h23.29.279,ANT,3.0.0b12,60,,,3,0,3,0,1,2,2,0,96,4,1,95
1.5,right,1,0.612,,,,,,,stim/blank.png,stim/incongLeft.png,right,180,001,001,2019-01-24_10h23.29.279,ANT,3.0.0b12,60,,,3,0,3,0,1,2,2,0,96,23,1,95
1.55,left,1,0.597,,,,,,,stim/upper.png,stim/incongLeft.png,left,0,001,001,2019-01-24_10h23.29.279,ANT,3.0.0b12,60,,,3,0,3,0,1,2,2,0,96,16,1,95
1.3,right,1,0.562,,,,,,,stim/both.png,stim/congLeft.png,right,180,001,001,2019-01-24_10h23.29.279,ANT,3.0.0b12,60,,,3,0,3,0,1,2,2,0,96,5,1,95
1.2,left,1,0.579,,,,,,,stim/centre.png,stim/incongRight.png,left,180,001,001,2019-01-24_10h23.29.279,ANT,3.0.0b12,60,,,3,0,3,0,1,2,2,0,96,30,1,95
0.4,right,1,0.58,,,,,,,stim/blank.png,stim/congLeft.png,right,180,001,001,2019-01-24_10h23.29.279,ANT,3.0.0b12,60,,,3,0,3,0,1,2,2,0,96,7,1,95
1.35,right,1,0.58,,,,,,,stim/centre.png,stim/incongLeft.png,right,180,001,001,2019-01-24_10h23.29.279,ANT,3.0.0b12,60,,,3,0,3,0,1,2,2,0,96,22,1,95
0.4,right,1,0.598,,,,,,,stim/centre.png,stim/congRight.png,right,0,001,001,2019-01-24_10h23.29.279,ANT,3.0.0b12,60,,,3,0,3,0,1,2,2,0,96,10,1,95
1.05,right,1,0.513,,,,,,,stim/upper.png,stim/congRight.png,right,0,001,001,2019-01-24_10h23.29.279,ANT,3.0.0b12,60,,,3,0,3,0,1,2,2,0,96,8,1,95
1.05,left,1,0.613,,,,,,,stim/lower.png,stim/congRight.png,left,180,001,001,2019-01-24_10h23.29.279,ANT,3.0.0b12,60,,,3,0,3,0,1,2,2,0,96,12,1,95
0.5,left,1,0.63,,,,,,,stim/centre.png,stim/incongLeft.png,left,0,001,001,2019-01-24_10h23.29.279,ANT,3.0.0b12,60,,,3,0,3,0,1,2,2,0,96,18,1,95
0.9,right,1,0.613,,,,,,,stim/both.png,stim/congRight.png,right,0,001,001,2019-01-24_10h23.29.279,ANT,3.0.0b12,60,,,3,0,3,0,1,2,2,0,96,9,1,95
0.4,left,1,0.43,,,,,,,stim/both.png,stim/congLeft.png,left,0,001,001,2019-01-24_10h23.29.279,ANT,3.0.0b12,60,,,3,0,3,0,1,2,2,0,96,1,1,95
1.25,left,1,0.496,,,,,,,stim/lower.png,stim/neutralRight.png,left,180,001,001,2019-01-24_10h23.29.279,ANT,3.0.0b12,60,,,3,0,3,0,1,2,2,0,96,44,1,95
1.55,left,1,0.563,,,,,,,stim/blank.png,stim/neutralLeft.png,left,0,001,001,2019-01-24_10h23.29.279,ANT,3.0.0b12,60,,,3,0,3,0,1,2,2,0,96,35,1,95
1.25,left,1,0.48,,,,,,,stim/blank.png,stim/neutralRight.png,left,180,001,001,2019-01-24_10h23.29.279,ANT,3.0.0b12,60,,,3,0,3,0,1,2,2,0,96,47,1,95
1.35,right,1,0.513,,,,,,,stim/blank.png,stim/neutralLeft.png,right,180,001,001,2019-01-24_10h23.29.279,ANT,3.0.0b12,60,,,3,0,3,0,1,2,2,0,96,39,1,95
1.2,right,1,0.597,,,,,,,stim/blank.png,stim/congRight.png,right,0,001,001,2019-01-24_10h23.29.279,ANT,3.0.0b12,60,,,3,0,3,0,1,2,2,0,96,11,1,95
1.55,right,1,0.464,,,,,,,stim/centre.png,stim/neutralLeft.png,right,180,001,001,2019-01-24_10h23.29.279,ANT,3.0.0b12,60,,,3,0,3,0,1,2,2,0,96,38,1,95
0.4,right,1,0.447,,,,,,,stim/lower.png,stim/neutralLeft.png,right,180,001,001,2019-01-24_10h23.29.279,ANT,3.0.0b12,60,,,3,0,3,0,1,2,2,0,96,36,1,95
0.85,left,1,0.529,,,,,,,stim/blank.png,stim/incongLeft.png,left,0,001,001,2019-01-24_10h23.29.279,ANT,3.0.0b12,60,,,3,0,3,0,1,2,2,0,96,19,1,95
1.5,right,1,0.529,,,,,,,stim/both.png,stim/neutralLeft.png,right,180,001,001,2019-01-24_10h23.29.279,ANT,3.0.0b12,60,,,3,0,3,0,1,2,2,0,96,37,1,95
0.9,left,1,0.447,,,,,,,stim/upper.png,stim/neutralLeft.png,left,0,001,001,2019-01-24_10h23.29.279,ANT,3.0.0b12,60,,,3,0,3,0,1,2,2,0,96,32,1,95
0.65,left,1,0.446,,,,,,,stim/both.png,stim/neutralRight.png,left,180,001,001,2019-01-24_10h23.29.279,ANT,3.0.0b12,60,,,3,0,3,0,1,2,2,0,96,45,1,95
0.75,right,1,0.562,,,,,,,stim/both.png,stim/congLeft.png,right,180,001,001,2019-01-24_10h23.29.279,ANT,3.0.0b12,60,,,3,0,3,0,1,2,2,0,96,5,1,95
1.15,right,1,0.681,,,,,,,stim/blank.png,stim/incongRight.png,right,0,001,001,2019-01-24_10h23.29.279,ANT,3.0.0b12,60,,,3,0,3,0,1,2,2,0,96,27,1,95
1.5,left,1,0.464,,,,,,,stim/upper.png,stim/congLeft.png,left,0,001,001,2019-01-24_10h23.29.279,ANT,3.0.0b12,60,,,3,0,3,0,1,2,2,0,96,0,1,95
1.55,left,1,0.497,,,,,,,stim/centre.png,stim/neutralLeft.png,left,0,001,001,2019-01-24_10h23.29.279,ANT,3.0.0b12,60,,,3,0,3,0,1,2,2,0,96,34,1,95
0.95,right,1,0.497,,,,,,,stim/both.png,stim/neutralRight.png,right,0,001,001,2019-01-24_10h23.29.279,ANT,3.0.0b12,60,,,3,0,3,0,1,2,2,0,96,41,1,95
1,left,1,0.714,,,,,,,stim/both.png,stim/incongRight.png,left,180,001,001,2019-01-24_10h23.29.279,ANT,3.0.0b12,60,,,3,0,3,0,1,2,2,0,96,29,1,95
1.25,left,1,0.447,,,,,,,stim/blank.png,stim/congLeft.png,left,0,001,001,2019-01-24_10h23.29.279,ANT,3.0.0b12,60,,,3,0,3,0,1,2,2,0,96,3,1,95
1.25,right,1,0.43,,,,,,,stim/upper.png,stim/neutralRight.png,right,0,001,001,2019-01-24_10h23.29.279,ANT,3.0.0b12,60,,,3,0,3,0,1,2,2,0,96,40,1,95
1.25,left,1,0.646,,,,,,,stim/blank.png,stim/incongRight.png,left,180,001,001,2019-01-24_10h23.29.279,ANT,3.0.0b12,60,,,3,0,3,0,1,2,2,0,96,31,1,95
0.65,right,1,0.513,,,,,,,stim/upper.png,stim/incongRight.png,right,0,001,001,2019-01-24_10h23.29.279,ANT,3.0.0b12,60,,,3,0,3,0,1,2,2,0,96,24,1,95
1.05,left,1,0.646,,,,,,,stim/centre.png,stim/incongRight.png,left,180,001,001,2019-01-24_10h23.29.279,ANT,3.0.0b12,60,,,3,0,3,0,1,2,2,0,96,30,1,95
1.2,left,1,0.531,,,,,,,stim/centre.png,stim/neutralRight.png,left,180,001,001,2019-01-24_10h23.29.279,ANT,3.0.0b12,60,,,3,0,3,0,1,2,2,0,96,46,1,95
0.65,left,1,0.564,,,,,,,stim/both.png,stim/congRight.png,left,180,001,001,2019-01-24_10h23.29.279,ANT,3.0.0b12,60,,,3,0,3,0,1,2,2,0,96,13,1,95
1,right,1,0.613,,,,,,,stim/centre.png,stim/incongRight.png,right,0,001,001,2019-01-24_10h23.29.279,ANT,3.0.0b12,60,,,3,0,3,0,1,2,2,0,96,26,1,95
1.55,right,1,0.529,,,,,,,stim/centre.png,stim/congLeft.png,right,180,001,001,2019-01-24_10h23.29.279,ANT,3.0.0b12,60,,,3,0,3,0,1,2,2,0,96,6,1,95
1.2,right,1,0.581,,,,,,,stim/both.png,stim/incongLeft.png,right,180,001,001,2019-01-24_10h23.29.279,ANT,3.0.0b12,60,,,3,0,3,0,1,2,2,0,96,21,1,95
0.6,left,1,0.813,,,,,,,stim/blank.png,stim/congRight.png,left,180,001,001,2019-01-24_10h23.29.279,ANT,3.0.0b12,60,,,3,0,3,0,1,2,2,0,96,15,1,95
1.15,left,1,0.48,,,,,,,stim/both.png,stim/neutralLeft.png,left,0,001,001,2019-01-24_10h23.29.279,ANT,3.0.0b12,60,,,3,0,3,0,1,2,2,0,96,33,1,95
0.85,left,1,0.514,,,,,,,stim/both.png,stim/incongLeft.png,left,0,001,001,2019-01-24_10h23.29.279,ANT,3.0.0b12,60,,,3,0,3,0,1,2,2,0,96,17,1,95
1,left,1,0.464,,,,,,,stim/centre.png,stim/congRight.png,left,180,001,001,2019-01-24_10h23.29.279,ANT,3.0.0b12,60,,,3,0,3,0,1,2,2,0,96,14,1,95
0.6,right,0,0.412,,,,,,,stim/lower.png,stim/incongRight.png,left,180,001,001,2019-01-24_10h23.29.279,ANT,3.0.0b12,60,,,3,0,3,0,1,2,2,0,96,28,1,95
0.7,right,1,0.562,,,,,,,stim/both.png,stim/incongRight.png,right,0,001,001,2019-01-24_10h23.29.279,ANT,3.0.0b12,60,,,3,0,3,0,1,2,2,0,96,25,1,95
1.15,left,1,0.496,,,,,,,stim/upper.png,stim/incongLeft.png,left,0,001,001,2019-01-24_10h23.29.279,ANT,3.0.0b12,60,,,3,0,3,0,1,2,2,0,96,16,1,95
0.9,right,1,0.58,,,,,,,stim/lower.png,stim/incongLeft.png,right,180,001,001,2019-01-24_10h23.29.279,ANT,3.0.0b12,60,,,3,0,3,0,1,2,2,0,96,20,1,95
1.15,right,1,0.563,,,,,,,stim/blank.png,stim/incongLeft.png,right,180,001,001,2019-01-24_10h23.29.279,ANT,3.0.0b12,60,,,3,0,3,0,1,2,2,0,96,23,1,95
1.5,left,1,0.479,,,,,,,stim/centre.png,stim/congLeft.png,left,0,001,001,2019-01-24_10h23.29.279,ANT,3.0.0b12,60,,,3,0,3,0,1,2,2,0,96,2,1,95
0.65,right,1,0.497,,,,,,,stim/lower.png,stim/congLeft.png,right,180,001,001,2019-01-24_10h23.29.279,ANT,3.0.0b12,60,,,3,0,3,0,1,2,2,0,96,4,1,95
0.75,right,1,0.48,,,,,,,stim/centre.png,stim/neutralRight.png,right,0,001,001,2019-01-24_10h23.29.279,ANT,3.0.0b12,60,,,3,0,3,0,1,2,2,0,96,42,1,95
1.15,right,1,0.48,,,,,,,stim/blank.png,stim/neutralRight.png,right,0,001,001,2019-01-24_10h23.29.279,ANT,3.0.0b12,60,,,3,0,3,0,1,2,2,0,96,43,1,95
,,,,,,,,,,,,,,001,001,2019-01-24_10h23.29.279,ANT,3.0.0b12,60,,,3,0,3,0,1,2,,,,,,
0.7,right,1,0.58,,,,,,,stim/both.png,stim/incongRight.png,right,0,001,001,2019-01-24_10h23.29.279,ANT,3.0.0b12,60,,,3,0,3,0,1,2,2,0,96,25,1,95
1.05,right,1,0.446,,,,,,,stim/centre.png,stim/congRight.png,right,0,001,001,2019-01-24_10h23.29.279,ANT,3.0.0b12,60,,,3,0,3,0,1,2,2,0,96,10,1,95
1.25,left,1,0.463,,,,,,,stim/both.png,stim/neutralLeft.png,left,0,001,001,2019-01-24_10h23.29.279,ANT,3.0.0b12,60,,,3,0,3,0,1,2,2,0,96,33,1,95
1.4,left,0,0.447,,,,,,,stim/centre.png,stim/incongRight.png,right,0,001,001,2019-01-24_10h23.29.279,ANT,3.0.0b12,60,,,3,0,3,0,1,2,2,0,96,26,1,95
0.7,right,1,0.463,,,,,,,stim/upper.png,stim/neutralRight.png,right,0,001,001,2019-01-24_10h23.29.279,ANT,3.0.0b12,60,,,3,0,3,0,1,2,2,0,96,40,1,95
0.6,right,1,0.53,,,,,,,stim/upper.png,stim/incongRight.png,right,0,001,001,2019-01-24_10h23.29.279,ANT,3.0.0b12,60,,,3,0,3,0,1,2,2,0,96,24,1,95
0.55,left,1,0.613,,,,,,,stim/blank.png,stim/neutralRight.png,left,180,001,001,2019-01-24_10h23.29.279,ANT,3.0.0b12,60,,,3,0,3,0,1,2,2,0,96,47,1,95
1,right,1,0.461,,,,,,,stim/both.png,stim/congRight.png,right,0,001,001,2019-01-24_10h23.29.279,ANT,3.0.0b12,60,,,3,0,3,0,1,2,2,0,96,9,1,95
1.3,left,1,0.562,,,,,,,stim/blank.png,stim/congLeft.png,left,0,001,001,2019-01-24_10h23.29.279,ANT,3.0.0b12,60,,,3,0,3,0,1,2,2,0,96,3,1,95
0.7,right,1,0.513,,,,,,,stim/blank.png,stim/congLeft.png,right,180,001,001,2019-01-24_10h23.29.279,ANT,3.0.0b12,60,,,3,0,3,0,1,2,2,0,96,7,1,95
0.65,right,1,0.479,,,,,,,stim/upper.png,stim/congRight.png,right,0,001,001,2019-01-24_10h23.29.279,ANT,3.0.0b12,60,,,3,0,3,0,1,2,2,0,96,8,1,95
0.7,left,1,0.48,,,,,,,stim/blank.png,stim/neutralLeft.png,left,0,001,001,2019-01-24_10h23.29.279,ANT,3.0.0b12,60,,,3,0,3,0,1,2,2,0,96,35,1,95
1.4,left,1,0.68,,,,,,,stim/upper.png,stim/congLeft.png,left,0,001,001,2019-01-24_10h23.29.279,ANT,3.0.0b12,60,,,3,0,3,0,1,2,2,0,96,0,1,95
0.6,right,1,0.478,,,,,,,stim/both.png,stim/congLeft.png,right,180,001,001,2019-01-24_10h23.29.279,ANT,3.0.0b12,60,,,3,0,3,0,1,2,2,0,96,5,1,95
0.4,left,1,0.464,,,,,,,stim/both.png,stim/congLeft.png,left,0,001,001,2019-01-24_10h23.29.279,ANT,3.0.0b12,60,,,3,0,3,0,1,2,2,0,96,1,1,95
0.95,right,1,0.479,,,,,,,stim/both.png,stim/neutralLeft.png,right,180,001,001,2019-01-24_10h23.29.279,ANT,3.0.0b12,60,,,3,0,3,0,1,2,2,0,96,37,1,95
1.45,left,1,0.531,,,,,,,stim/upper.png,stim/incongLeft.png,left,0,001,001,2019-01-24_10h23.29.279,ANT,3.0.0b12,60,,,3,0,3,0,1,2,2,0,96,16,1,95
0.8,left,1,0.481,,,,,,,stim/centre.png,stim/neutralLeft.png,left,0,001,001,2019-01-24_10h23.29.279,ANT,3.0.0b12,60,,,3,0,3,0,1,2,2,0,96,34,1,95
0.7,left,1,0.463,,,,,,,stim/centre.png,stim/congLeft.png,left,0,001,001,2019-01-24_10h23.29.279,ANT,3.0.0b12,60,,,3,0,3,0,1,2,2,0,96,2,1,95
1.1,right,1,0.513,,,,,,,stim/centre.png,stim/congLeft.png,right,180,001,001,2019-01-24_10h23.29.279,ANT,3.0.0b12,60,,,3,0,3,0,1,2,2,0,96,6,1,95
1.55,left,1,0.715,,,,,,,stim/centre.png,stim/incongLeft.png,left,0,001,001,2019-01-24_10h23.29.279,ANT,3.0.0b12,60,,,3,0,3,0,1,2,2,0,96,18,1,95
1.15,left,1,0.679,,,,,,,stim/both.png,stim/incongRight.png,left,180,001,001,2019-01-24_10h23.29.279,ANT,3.0.0b12,60,,,3,0,3,0,1,2,2,0,96,29,1,95
1.5,right,1,0.513,,,,,,,stim/lower.png,stim/neutralLeft.png,right,180,001,001,2019-01-24_10h23.29.279,ANT,3.0.0b12,60,,,3,0,3,0,1,2,2,0,96,36,1,95
1.45,right,1,0.546,,,,,,,stim/centre.png,stim/neutralRight.png,right,0,001,001,2019-01-24_10h23.29.279,ANT,3.0.0b12,60,,,3,0,3,0,1,2,2,0,96,42,1,95
0.9,left,1,0.53,,,,,,,stim/both.png,stim/congRight.png,left,180,001,001,2019-01-24_10h23.29.279,ANT,3.0.0b12,60,,,3,0,3,0,1,2,2,0,96,13,1,95
0.45,left,1,0.496,,,,,,,stim/blank.png,stim/congRight.png,left,180,001,001,2019-01-24_10h23.29.279,ANT,3.0.0b12,60,,,3,0,3,0,1,2,2,0,96,15,1,95
1.1,right,1,0.463,,,,,,,stim/blank.png,stim/neutralLeft.png,right,180,001,001,2019-01-24_10h23.29.279,ANT,3.0.0b12,60,,,3,0,3,0,1,2,2,0,96,39,1,95
1.4,right,1,0.547,,,,,,,stim/blank.png,stim/incongLeft.png,right,180,001,001,2019-01-24_10h23.29.279,ANT,3.0.0b12,60,,,3,0,3,0,1,2,2,0,96,23,1,95
0.8,right,1,0.479,,,,,,,stim/blank.png,stim/congRight.png,right,0,001,001,2019-01-24_10h23.29.279,ANT,3.0.0b12,60,,,3,0,3,0,1,2,2,0,96,11,1,95
1,left,1,0.48,,,,,,,stim/lower.png,stim/congRight.png,left,180,001,001,2019-01-24_10h23.29.279,ANT,3.0.0b12,60,,,3,0,3,0,1,2,2,0,96,12,1,95
1.1,right,1,0.396,,,,,,,stim/both.png,stim/neutralRight.png,right,0,001,001,2019-01-24_10h23.29.279,ANT,3.0.0b12,60,,,3,0,3,0,1,2,2,0,96,41,1,95
0.5,right,1,0.565,,,,,,,stim/lower.png,stim/incongLeft.png,right,180,001,001,2019-01-24_10h23.29.279,ANT,3.0.0b12,60,,,3,0,3,0,1,2,2,0,96,20,1,95
0.75,left,1,0.679,,,,,,,stim/blank.png,stim/incongRight.png,left,180,001,001,2019-01-24_10h23.29.279,ANT,3.0.0b12,60,,,3,0,3,0,1,2,2,0,96,31,1,95
1.1,right,1,0.583,,,,,,,stim/blank.png,stim/neutralRight.png,right,0,001,001,2019-01-24_10h23.29.279,ANT,3.0.0b12,60,,,3,0,3,0,1,2,2,0,96,43,1,95
1.15,right,1,0.579,,,,,,,stim/blank.png,stim/incongRight.png,right,0,001,001,2019-01-24_10h23.29.279,ANT,3.0.0b12,60,,,3,0,3,0,1,2,2,0,96,27,1,95
0.5,left,1,0.613,,,,,,,stim/both.png,stim/incongLeft.png,left,0,001,001,2019-01-24_10h23.29.279,ANT,3.0.0b12,60,,,3,0,3,0,1,2,2,0,96,17,1,95
1.5,right,0,0.446,,,,,,,stim/centre.png,stim/incongRight.png,left,180,001,001,2019-01-24_10h23.29.279,ANT,3.0.0b12,60,,,3,0,3,0,1,2,2,0,96,30,1,95
1,left,1,0.563,,,,,,,stim/both.png,stim/neutralRight.png,left,180,001,001,2019-01-24_10h23.29.279,ANT,3.0.0b12,60,,,3,0,3,0,1,2,2,0,96,45,1,95
0.9,left,1,0.629,,,,,,,stim/blank.png,stim/incongLeft.png,left,0,001,001,2019-01-24_10h23.29.279,ANT,3.0.0b12,60,,,3,0,3,0,1,2,2,0,96,19,1,95
1.2,left,1,0.496,,,,,,,stim/upper.png,stim/neutralLeft.png,left,0,001,001,2019-01-24_10h23.29.279,ANT,3.0.0b12,60,,,3,0,3,0,1,2,2,0,96,32,1,95
0.8,right,1,0.461,,,,,,,stim/centre.png,stim/neutralLeft.png,right,180,001,001,2019-01-24_10h23.29.279,ANT,3.0.0b12,60,,,3,0,3,0,1,2,2,0,96,38,1,95
0.45,right,1,0.464,,,,,,,stim/lower.png,stim/congLeft.png,right,180,001,001,2019-01-24_10h23.29.279,ANT,3.0.0b12,60,,,3,0,3,0,1,2,2,0,96,4,1,95
0.55,right,1,0.579,,,,,,,stim/centre.png,stim/incongLeft.png,right,180,001,001,2019-01-24_10h23.29.279,ANT,3.0.0b12,60,,,3,0,3,0,1,2,2,0,96,22,1,95
0.85,right,1,0.646,,,,,,,stim/both.png,stim/incongLeft.png,right,180,001,001,2019-01-24_10h23.29.279,ANT,3.0.0b12,60,,,3,0,3,0,1,2,2,0,96,21,1,95
0.8,left,1,0.48,,,,,,,stim/lower.png,stim/neutralRight.png,left,180,001,001,2019-01-24_10h23.29.279,ANT,3.0.0b12,60,,,3,0,3,0,1,2,2,0,96,44,1,95
0.95,left,1,0.48,,,,,,,stim/centre.png,stim/neutralRight.png,left,180,001,001,2019-01-24_10h23.29.279,ANT,3.0.0b12,60,,,3,0,3,0,1,2,2,0,96,46,1,95
1.3,left,1,0.78,,,,,,,stim/centre.png,stim/congRight.png,left,180,001,001,2019-01-24_10h23.29.279,ANT,3.0.0b12,60,,,3,0,3,0,1,2,2,0,96,14,1,95
0.8,left,1,0.63,,,,,,,stim/lower.png,stim/incongRight.png,left,180,001,001,2019-01-24_10h23.29.279,ANT,3.0.0b12,60,,,3,0,3,0,1,2,2,0,96,28,1,95
0.9,right,1,0.579,,,,,,,stim/blank.png,stim/neutralLeft.png,right,180,001,001,2019-01-24_10h23.29.279,ANT,3.0.0b12,60,,,3,0,3,0,1,2,2,0,96,39,1,95
0.95,right,1,0.563,,,,,,,stim/blank.png,stim/incongLeft.png,right,180,001,001,2019-01-24_10h23.29.279,ANT,3.0.0b12,60,,,3,0,3,0,1,2,2,0,96,23,1,95
1.3,right,1,0.562,,,,,,,stim/both.png,stim/incongLeft.png,right,180,001,001,2019-01-24_10h23.29.279,ANT,3.0.0b12,60,,,3,0,3,0,1,2,2,0,96,21,1,95
1.15,right,1,0.479,,,,,,,stim/lower.png,stim/neutralLeft.png,right,180,001,001,2019-01-24_10h23.29.279,ANT,3.0.0b12,60,,,3,0,3,0,1,2,2,0,96,36,1,95
1.55,left,1,0.498,,,,,,,stim/both.png,stim/congRight.png,left,180,001,001,2019-01-24_10h23.29.279,ANT,3.0.0b12,60,,,3,0,3,0,1,2,2,0,96,13,1,95
0.4,right,1,0.596,,,,,,,stim/centre.png,stim/incongRight.png,right,0,001,001,2019-01-24_10h23.29.279,ANT,3.0.0b12,60,,,3,0,3,0,1,2,2,0,96,26,1,95
1.5,left,1,0.614,,,,,,,stim/both.png,stim/incongRight.png,left,180,001,001,2019-01-24_10h23.29.279,ANT,3.0.0b12,60,,,3,0,3,0,1,2,2,0,96,29,1,95
1.35,left,1,0.63,,,,,,,stim/blank.png,stim/incongLeft.png,left,0,001,001,2019-01-24_10h23.29.279,ANT,3.0.0b12,60,,,3,0,3,0,1,2,2,0,96,19,1,95
0.6,left,1,0.48,,,,,,,stim/centre.png,stim/congRight.png,left,180,001,001,2019-01-24_10h23.29.279,ANT,3.0.0b12,60,,,3,0,3,0,1,2,2,0,96,14,1,95
0.85,left,1,0.53,,,,,,,stim/upper.png,stim/neutralLeft.png,left,0,001,001,2019-01-24_10h23.29.279,ANT,3.0.0b12,60,,,3,0,3,0,1,2,2,0,96,32,1,95
1.1,right,1,0.497,,,,,,,stim/both.png,stim/neutralRight.png,right,0,001,001,2019-01-24_10h23.29.279,ANT,3.0.0b12,60,,,3,0,3,0,1,2,2,0,96,41,1,95
1.4,right,1,0.579,,,,,,,stim/blank.png,stim/incongRight.png,right,0,001,001,2019-01-24_10h23.29.279,ANT,3.0.0b12,60,,,3,0,3,0,1,2,2,0,96,27,1,95
1.35,right,1,0.546,,,,,,,stim/both.png,stim/incongRight.png,right,0,001,001,2019-01-24_10h23.29.279,ANT,3.0.0b12,60,,,3,0,3,0,1,2,2,0,96,25,1,95
0.9,right,1,0.497,,,,,,,stim/blank.png,stim/neutralRight.png,right,0,001,001,2019-01-24_10h23.29.279,ANT,3.0.0b12,60,,,3,0,3,0,1,2,2,0,96,43,1,95
1.3,right,1,0.596,,,,,,,stim/centre.png,stim/incongLeft.png,right,180,001,001,2019-01-24_10h23.29.279,ANT,3.0.0b12,60,,,3,0,3,0,1,2,2,0,96,22,1,95
1.55,right,1,0.48,,,,,,,stim/centre.png,stim/neutralRight.png,right,0,001,001,2019-01-24_10h23.29.279,ANT,3.0.0b12,60,,,3,0,3,0,1,2,2,0,96,42,1,95
1,right,1,0.447,,,,,,,stim/centre.png,stim/congLeft.png,right,180,001,001,2019-01-24_10h23.29.279,ANT,3.0.0b12,60,,,3,0,3,0,1,2,2,0,96,6,1,95
1.25,left,1,0.563,,,,,,,stim/both.png,stim/incongLeft.png,left,0,001,001,2019-01-24_10h23.29.279,ANT,3.0.0b12,60,,,3,0,3,0,1,2,2,0,96,17,1,95
1.25,left,1,1.029,,,,,,,stim/centre.png,stim/congLeft.png,left,0,001,001,2019-01-24_10h23.29.279,ANT,3.0.0b12,60,,,3,0,3,0,1,2,2,0,96,2,1,95
1.15,left,1,0.629,,,,,,,stim/blank.png,stim/incongRight.png,left,180,001,001,2019-01-24_10h23.29.279,ANT,3.0.0b12,60,,,3,0,3,0,1,2,2,0,96,31,1,95
1.1,left,1,0.447,,,,,,,stim/both.png,stim/neutralLeft.png,left,0,001,001,2019-01-24_10h23.29.279,ANT,3.0.0b12,60,,,3,0,3,0,1,2,2,0,96,33,1,95
0.75,right,1,0.447,,,,,,,stim/centre.png,stim/neutralLeft.png,right,180,001,001,2019-01-24_10h23.29.279,ANT,3.0.0b12,60,,,3,0,3,0,1,2,2,0,96,38,1,95
1.15,right,1,0.563,,,,,,,stim/blank.png,stim/congLeft.png,right,180,001,001,2019-01-24_10h23.29.279,ANT,3.0.0b12,60,,,3,0,3,0,1,2,2,0,96,7,1,95
1.4,left,1,0.481,,,,,,,stim/both.png,stim/neutralRight.png,left,180,001,001,2019-01-24_10h23.29.279,ANT,3.0.0b12,60,,,3,0,3,0,1,2,2,0,96,45,1,95
0.95,left,1,0.613,,,,,,,stim/both.png,stim/congLeft.png,left,0,001,001,2019-01-24_10h23.29.279,ANT,3.0.0b12,60,,,3,0,3,0,1,2,2,0,96,1,1,95
1.05,right,1,0.547,,,,,,,stim/upper.png,stim/incongRight.png,right,0,001,001,2019-01-24_10h23.29.279,ANT,3.0.0b12,60,,,3,0,3,0,1,2,2,0,96,24,1,95
0.85,left,1,0.663,,,,,,,stim/lower.png,stim/incongRight.png,left,180,001,001,2019-01-24_10h23.29.279,ANT,3.0.0b12,60,,,3,0,3,0,1,2,2,0,96,28,1,95
1.2,left,1,0.612,,,,,,,stim/blank.png,stim/neutralRight.png,left,180,001,001,2019-01-24_10h23.29.279,ANT,3.0.0b12,60,,,3,0,3,0,1,2,2,0,96,47,1,95
0.85,right,1,0.513,,,,,,,stim/blank.png,stim/congRight.png,right,0,001,001,2019-01-24_10h23.29.279,ANT,3.0.0b12,60,,,3,0,3,0,1,2,2,0,96,11,1,95
1.35,right,1,0.512,,,,,,,stim/lower.png,stim/congLeft.png,right,180,001,001,2019-01-24_10h23.29.279,ANT,3.0.0b12,60,,,3,0,3,0,1,2,2,0,96,4,1,95
0.65,left,1,0.58,,,,,,,stim/blank.png,stim/neutralLeft.png,left,0,001,001,2019-01-24_10h23.29.279,ANT,3.0.0b12,60,,,3,0,3,0,1,2,2,0,96,35,1,95
0.4,left,1,0.481,,,,,,,stim/blank.png,stim/congRight.png,left,180,001,001,2019-01-24_10h23.29.279,ANT,3.0.0b12,60,,,3,0,3,0,1,2,2,0,96,15,1,95
1.4,left,1,0.596,,,,,,,stim/upper.png,stim/incongLeft.png,left,0,001,001,2019-01-24_10h23.29.279,ANT,3.0.0b12,60,,,3,0,3,0,1,2,2,0,96,16,1,95
1.55,right,1,0.496,,,,,,,stim/both.png,stim/neutralLeft.png,right,180,001,001,2019-01-24_10h23.29.279,ANT,3.0.0b12,60,,,3,0,3,0,1,2,2,0,96,37,1,95
0.9,left,1,0.53,,,,,,,stim/blank.png,stim/congLeft.png,left,0,001,001,2019-01-24_10h23.29.279,ANT,3.0.0b12,60,,,3,0,3,0,1,2,2,0,96,3,1,95
0.55,left,1,0.447,,,,,,,stim/lower.png,stim/neutralRight.png,left,180,001,001,2019-01-24_10h23.29.279,ANT,3.0.0b12,60,,,3,0,3,0,1,2,2,0,96,44,1,95
1,left,1,0.447,,,,,,,stim/centre.png,stim/neutralRight.png,left,180,001,001,2019-01-24_10h23.29.279,ANT,3.0.0b12,60,,,3,0,3,0,1,2,2,0,96,46,1,95
0.45,right,1,0.463,,,,,,,stim/upper.png,stim/congRight.png,right,0,001,001,2019-01-24_10h23.29.279,ANT,3.0.0b12,60,,,3,0,3,0,1,2,2,0,96,8,1,95
0.75,left,1,0.78,,,,,,,stim/centre.png,stim/incongRight.png,left,180,001,001,2019-01-24_10h23.29.279,ANT,3.0.0b12,60,,,3,0,3,0,1,2,2,0,96,30,1,95
0.45,right,1,0.463,,,,,,,stim/both.png,stim/congRight.png,right,0,001,001,2019-01-24_10h23.29.279,ANT,3.0.0b12,60,,,3,0,3,0,1,2,2,0,96,9,1,95
0.6,right,1,0.479,,,,,,,stim/upper.png,stim/neutralRight.png,right,0,001,001,2019-01-24_10h23.29.279,ANT,3.0.0b12,60,,,3,0,3,0,1,2,2,0,96,40,1,95
1.45,left,1,0.481,,,,,,,stim/centre.png,stim/neutralLeft.png,left,0,001,001,2019-01-24_10h23.29.279,ANT,3.0.0b12,60,,,3,0,3,0,1,2,2,0,96,34,1,95
1.45,right,1,0.48,,,,,,,stim/both.png,stim/congLeft.png,right,180,001,001,2019-01-24_10h23.29.279,ANT,3.0.0b12,60,,,3,0,3,0,1,2,2,0,96,5,1,95
0.65,right,1,0.596,,,,,,,stim/lower.png,stim/incongLeft.png,right,180,001,001,2019-01-24_10h23.29.279,ANT,3.0.0b12,60,,,3,0,3,0,1,2,2,0,96,20,1,95
0.8,left,1,0.496,,,,,,,stim/lower.png,stim/congRight.png,left,180,001,001,2019-01-24_10h23.29.279,ANT,3.0.0b12,60,,,3,0,3,0,1,2,2,0,96,12,1,95
1.4,right,1,0.496,,,,,,,stim/centre.png,stim/congRight.png,right,0,001,001,2019-01-24_10h23.29.279,ANT,3.0.0b12,60,,,3,0,3,0,1,2,2,0,96,10,1,95
0.8,left,1,0.563,,,,,,,stim/upper.png,stim/congLeft.png,left,0,001,001,2019-01-24_10h23.29.279,ANT,3.0.0b12,60,,,3,0,3,0,1,2,2,0,96,0,1,95
1.05,left,1,0.731,,,,,,,stim/centre.png,stim/incongLeft.png,left,0,001,001,2019-01-24_10h23.29.279,ANT,3.0.0b12,60,,,3,0,3,0,1,2,2,0,96,18,1,95
,,,,,,,,,,,,,,001,001,2019-01-24_10h23.29.279,ANT,3.0.0b12,60,,,3,0,3,0,1,2,,,,,,
1.15,right,1,0.446,,,,,,,stim/lower.png,stim/congLeft.png,right,180,001,001,2019-01-24_10h23.29.279,ANT,3.0.0b12,60,,,3,0,3,0,1,2,2,0,96,4,1,95
1.45,right,1,0.546,,,,,,,stim/lower.png,stim/incongLeft.png,right,180,001,001,2019-01-24_10h23.29.279,ANT,3.0.0b12,60,,,3,0,3,0,1,2,2,0,96,20,1,95
1,left,1,0.579,,,,,,,stim/blank.png,stim/neutralLeft.png,left,0,001,001,2019-01-24_10h23.29.279,ANT,3.0.0b12,60,,,3,0,3,0,1,2,2,0,96,35,1,95
0.6,left,1,0.414,,,,,,,stim/upper.png,stim/congLeft.png,left,0,001,001,2019-01-24_10h23.29.279,ANT,3.0.0b12,60,,,3,0,3,0,1,2,2,0,96,0,1,95
1.1,left,1,0.513,,,,,,,stim/centre.png,stim/neutralLeft.png,left,0,001,001,2019-01-24_10h23.29.279,ANT,3.0.0b12,60,,,3,0,3,0,1,2,2,0,96,34,1,95
0.5,left,1,0.629,,,,,,,stim/both.png,stim/incongRight.png,left,180,001,001,2019-01-24_10h23.29.279,ANT,3.0.0b12,60,,,3,0,3,0,1,2,2,0,96,29,1,95
0.65,right,1,0.463,,,,,,,stim/centre.png,stim/neutralRight.png,right,0,001,001,2019-01-24_10h23.29.279,ANT,3.0.0b12,60,,,3,0,3,0,1,2,2,0,96,42,1,95
0.6,left,1,0.462,,,,,,,stim/both.png,stim/neutralLeft.png,left,0,001,001,2019-01-24_10h23.29.279,ANT,3.0.0b12,60,,,3,0,3,0,1,2,2,0,96,33,1,95
0.55,right,1,0.463,,,,,,,stim/centre.png,stim/congLeft.png,right,180,001,001,2019-01-24_10h23.29.279,ANT,3.0.0b12,60,,,3,0,3,0,1,2,2,0,96,6,1,95
1.05,right,1,0.479,,,,,,,stim/both.png,stim/congLeft.png,right,180,001,001,2019-01-24_10h23.29.279,ANT,3.0.0b12,60,,,3,0,3,0,1,2,2,0,96,5,1,95
1.4,right,1,0.546,,,,,,,stim/centre.png,stim/incongRight.png,right,0,001,001,2019-01-24_10h23.29.279,ANT,3.0.0b12,60,,,3,0,3,0,1,2,2,0,96,26,1,95
1.5,right,1,0.429,,,,,,,stim/centre.png,stim/congRight.png,right,0,001,001,2019-01-24_10h23.29.279,ANT,3.0.0b12,60,,,3,0,3,0,1,2,2,0,96,10,1,95
0.9,left,1,0.53,,,,,,,stim/centre.png,stim/incongLeft.png,left,0,001,001,2019-01-24_10h23.29.279,ANT,3.0.0b12,60,,,3,0,3,0,1,2,2,0,96,18,1,95
1.5,left,1,0.497,,,,,,,stim/blank.png,stim/neutralRight.png,left,180,001,001,2019-01-24_10h23.29.279,ANT,3.0.0b12,60,,,3,0,3,0,1,2,2,0,96,47,1,95
1,right,1,0.481,,,,,,,stim/blank.png,stim/neutralLeft.png,right,180,001,001,2019-01-24_10h23.29.279,ANT,3.0.0b12,60,,,3,0,3,0,1,2,2,0,96,39,1,95
0.6,left,1,0.446,,,,,,,stim/blank.png,stim/congRight.png,left,180,001,001,2019-01-24_10h23.29.279,ANT,3.0.0b12,60,,,3,0,3,0,1,2,2,0,96,15,1,95
0.8,right,1,0.43,,,,,,,stim/upper.png,stim/congRight.png,right,0,001,001,2019-01-24_10h23.29.279,ANT,3.0.0b12,60,,,3,0,3,0,1,2,2,0,96,8,1,95
1.15,left,1,0.462,,,,,,,stim/both.png,stim/congRight.png,left,180,001,001,2019-01-24_10h23.29.279,ANT,3.0.0b12,60,,,3,0,3,0,1,2,2,0,96,13,1,95
1.2,right,1,0.563,,,,,,,stim/blank.png,stim/incongRight.png,right,0,001,001,2019-01-24_10h23.29.279,ANT,3.0.0b12,60,,,3,0,3,0,1,2,2,0,96,27,1,95
1,right,1,0.547,,,,,,,stim/blank.png,stim/congRight.png,right,0,001,001,2019-01-24_10h23.29.279,ANT,3.0.0b12,60,,,3,0,3,0,1,2,2,0,96,11,1,95
0.7,right,1,0.463,,,,,,,stim/both.png,stim/neutralRight.png,right,0,001,001,2019-01-24_10h23.29.279,ANT,3.0.0b12,60,,,3,0,3,0,1,2,2,0,96,41,1,95
0.45,left,1,1.046,,,,,,,stim/blank.png,stim/incongRight.png,left,180,001,001,2019-01-24_10h23.29.279,ANT,3.0.0b12,60,,,3,0,3,0,1,2,2,0,96,31,1,95
0.9,right,1,0.546,,,,,,,stim/both.png,stim/incongRight.png,right,0,001,001,2019-01-24_10h23.29.279,ANT,3.0.0b12,60,,,3,0,3,0,1,2,2,0,96,25,1,95
0.65,right,1,0.464,,,,,,,stim/blank.png,stim/neutralRight.png,right,0,001,001,2019-01-24_10h23.29.279,ANT,3.0.0b12,60,,,3,0,3,0,1,2,2,0,96,43,1,95
0.85,left,1,0.514,,,,,,,stim/blank.png,stim/incongLeft.png,left,0,001,001,2019-01-24_10h23.29.279,ANT,3.0.0b12,60,,,3,0,3,0,1,2,2,0,96,19,1,95
1.05,right,1,0.446,,,,,,,stim/blank.png,stim/congLeft.png,right,180,001,001,2019-01-24_10h23.29.279,ANT,3.0.0b12,60,,,3,0,3,0,1,2,2,0,96,7,1,95
0.45,left,1,0.547,,,,,,,stim/lower.png,stim/incongRight.png,left,180,001,001,2019-01-24_10h23.29.279,ANT,3.0.0b12,60,,,3,0,3,0,1,2,2,0,96,28,1,95
1.1,left,0,0.43,,,,,,,stim/both.png,stim/incongLeft.png,right,180,001,001,2019-01-24_10h23.29.279,ANT,3.0.0b12,60,,,3,0,3,0,1,2,2,0,96,21,1,95
0.6,left,1,0.513,,,,,,,stim/both.png,stim/incongLeft.png,left,0,001,001,2019-01-24_10h23.29.279,ANT,3.0.0b12,60,,,3,0,3,0,1,2,2,0,96,17,1,95
0.65,left,1,0.463,,,,,,,stim/upper.png,stim/neutralLeft.png,left,0,001,001,2019-01-24_10h23.29.279,ANT,3.0.0b12,60,,,3,0,3,0,1,2,2,0,96,32,1,95
0.45,left,1,0.498,,,,,,,stim/upper.png,stim/incongLeft.png,left,0,001,001,2019-01-24_10h23.29.279,ANT,3.0.0b12,60,,,3,0,3,0,1,2,2,0,96,16,1,95
0.55,left,1,0.412,,,,,,,stim/centre.png,stim/congLeft.png,left,0,001,001,2019-01-24_10h23.29.279,ANT,3.0.0b12,60,,,3,0,3,0,1,2,2,0,96,2,1,95
0.7,left,1,0.413,,,,,,,stim/blank.png,stim/congLeft.png,left,0,001,001,2019-01-24_10h23.29.279,ANT,3.0.0b12,60,,,3,0,3,0,1,2,2,0,96,3,1,95
1.35,left,1,0.464,,,,,,,stim/centre.png,stim/congRight.png,left,180,001,001,2019-01-24_10h23.29.279,ANT,3.0.0b12,60,,,3,0,3,0,1,2,2,0,96,14,1,95
1.3,left,1,0.413,,,,,,,stim/both.png,stim/congLeft.png,left,0,001,001,2019-01-24_10h23.29.279,ANT,3.0.0b12,60,,,3,0,3,0,1,2,2,0,96,1,1,95
0.5,right,1,0.413,,,,,,,stim/upper.png,stim/neutralRight.png,right,0,001,001,2019-01-24_10h23.29.279,ANT,3.0.0b12,60,,,3,0,3,0,1,2,2,0,96,40,1,95
0.65,left,1,0.396,,,,,,,stim/lower.png,stim/congRight.png,left,180,001,001,2019-01-24_10h23.29.279,ANT,3.0.0b12,60,,,3,0,3,0,1,2,2,0,96,12,1,95
1.15,left,1,0.596,,,,,,,stim/centre.png,stim/neutralRight.png,left,180,001,001,2019-01-24_10h23.29.279,ANT,3.0.0b12,60,,,3,0,3,0,1,2,2,0,96,46,1,95
1.4,right,1,0.613,,,,,,,stim/centre.png,stim/incongLeft.png,right,180,001,001,2019-01-24_10h23.29.279,ANT,3.0.0b12,60,,,3,0,3,0,1,2,2,0,96,22,1,95
1.25,left,1,0.595,,,,,,,stim/lower.png,stim/neutralRight.png,left,180,001,001,2019-01-24_10h23.29.279,ANT,3.0.0b12,60,,,3,0,3,0,1,2,2,0,96,44,1,95
0.55,right,1,0.479,,,,,,,stim/both.png,stim/neutralLeft.png,right,180,001,001,2019-01-24_10h23.29.279,ANT,3.0.0b12,60,,,3,0,3,0,1,2,2,0,96,37,1,95
1,right,1,0.496,,,,,,,stim/upper.png,stim/incongRight.png,right,0,001,001,2019-01-24_10h23.29.279,ANT,3.0.0b12,60,,,3,0,3,0,1,2,2,0,96,24,1,95
1,right,1,0.429,,,,,,,stim/lower.png,stim/neutralLeft.png,right,180,001,001,2019-01-24_10h23.29.279,ANT,3.0.0b12,60,,,3,0,3,0,1,2,2,0,96,36,1,95
0.65,right,0,0.38,,,,,,,stim/centre.png,stim/incongRight.png,left,180,001,001,2019-01-24_10h23.29.279,ANT,3.0.0b12,60,,,3,0,3,0,1,2,2,0,96,30,1,95
1.3,right,1,0.446,,,,,,,stim/both.png,stim/congRight.png,right,0,001,001,2019-01-24_10h23.29.279,ANT,3.0.0b12,60,,,3,0,3,0,1,2,2,0,96,9,1,95
0.75,left,1,0.446,,,,,,,stim/both.png,stim/neutralRight.png,left,180,001,001,2019-01-24_10h23.29.279,ANT,3.0.0b12,60,,,3,0,3,0,1,2,2,0,96,45,1,95
1.55,right,1,0.512,,,,,,,stim/blank.png,stim/incongLeft.png,right,180,001,001,2019-01-24_10h23.29.279,ANT,3.0.0b12,60,,,3,0,3,0,1,2,2,0,96,23,1,95
0.45,right,1,0.43,,,,,,,stim/centre.png,stim/neutralLeft.png,right,180,001,001,2019-01-24_10h23.29.279,ANT,3.0.0b12,60,,,3,0,3,0,1,2,2,0,96,38,1,95
1.15,left,1,0.58,,,,,,,stim/blank.png,stim/incongRight.png,left,180,001,001,2019-01-24_10h23.29.279,ANT,3.0.0b12,60,,,3,0,3,0,1,2,2,0,96,31,1,95
1.3,left,1,0.497,,,,,,,stim/lower.png,stim/incongRight.png,left,180,001,001,2019-01-24_10h23.29.279,ANT,3.0.0b12,60,,,3,0,3,0,1,2,2,0,96,28,1,95
1.3,left,1,0.446,,,,,,,stim/both.png,stim/congRight.png,left,180,001,001,2019-01-24_10h23.29.279,ANT,3.0.0b12,60,,,3,0,3,0,1,2,2,0,96,13,1,95
1.2,left,1,0.43,,,,,,,stim/lower.png,stim/congRight.png,left,180,001,001,2019-01-24_10h23.29.279,ANT,3.0.0b12,60,,,3,0,3,0,1,2,2,0,96,12,1,95
0.55,right,1,0.447,,,,,,,stim/blank.png,stim/congLeft.png,right,180,001,001,2019-01-24_10h23.29.279,ANT,3.0.0b12,60,,,3,0,3,0,1,2,2,0,96,7,1,95
0.7,right,1,0.431,,,,,,,stim/upper.png,stim/congRight.png,right,0,001,001,2019-01-24_10h23.29.279,ANT,3.0.0b12,60,,,3,0,3,0,1,2,2,0,96,8,1,95
0.55,right,1,0.513,,,,,,,stim/centre.png,stim/incongLeft.png,right,180,001,001,2019-01-24_10h23.29.279,ANT,3.0.0b12,60,,,3,0,3,0,1,2,2,0,96,22,1,95
0.4,right,1,0.396,,,,,,,stim/lower.png,stim/neutralLeft.png,right,180,001,001,2019-01-24_10h23.29.279,ANT,3.0.0b12,60,,,3,0,3,0,1,2,2,0,96,36,1,95
0.9,right,1,0.514,,,,,,,stim/lower.png,stim/incongLeft.png,right,180,001,001,2019-01-24_10h23.29.279,ANT,3.0.0b12,60,,,3,0,3,0,1,2,2,0,96,20,1,95
0.8,right,1,0.43,,,,,,,stim/both.png,stim/congLeft.png,right,180,001,001,2019-01-24_10h23.29.279,ANT,3.0.0b12,60,,,3,0,3,0,1,2,2,0,96,5,1,95
1.2,left,1,0.48,,,,,,,stim/centre.png,stim/neutralRight.png,left,180,001,001,2019-01-24_10h23.29.279,ANT,3.0.0b12,60,,,3,0,3,0,1,2,2,0,96,46,1,95
0.7,right,1,0.43,,,,,,,stim/lower.png,stim/congLeft.png,right,180,001,001,2019-01-24_10h23.29.279,ANT,3.0.0b12,60,,,3,0,3,0,1,2,2,0,96,4,1,95
1.25,right,1,0.545,,,,,,,stim/blank.png,stim/neutralLeft.png,right,180,001,001,2019-01-24_10h23.29.279,ANT,3.0.0b12,60,,,3,0,3,0,1,2,2,0,96,39,1,95
0.55,left,1,0.612,,,,,,,stim/centre.png,stim/incongRight.png,left,180,001,001,2019-01-24_10h23.29.279,ANT,3.0.0b12,60,,,3,0,3,0,1,2,2,0,96,30,1,95
1.35,right,0,0.463,,,,,,,stim/both.png,stim/incongLeft.png,left,0,001,001,2019-01-24_10h23.29.279,ANT,3.0.0b12,60,,,3,0,3,0,1,2,2,0,96,17,1,95
1,left,1,0.98,,,,,,,stim/centre.png,stim/incongLeft.png,left,0,001,001,2019-01-24_10h23.29.279,ANT,3.0.0b12,60,,,3,0,3,0,1,2,2,0,96,18,1,95
0.65,left,1,0.563,,,,,,,stim/upper.png,stim/incongLeft.png,left,0,001,001,2019-01-24_10h23.29.279,ANT,3.0.0b12,60,,,3,0,3,0,1,2,2,0,96,16,1,95
1.1,left,1,0.447,,,,,,,stim/upper.png,stim/neutralLeft.png,left,0,001,001,2019-01-24_10h23.29.279,ANT,3.0.0b12,60,,,3,0,3,0,1,2,2,0,96,32,1,95
1.45,right,1,0.463,,,,,,,stim/both.png,stim/congRight.png,right,0,001,001,2019-01-24_10h23.29.279,ANT,3.0.0b12,60,,,3,0,3,0,1,2,2,0,96,9,1,95
0.85,right,1,0.563,,,,,,,stim/centre.png,stim/neutralLeft.png,right,180,001,001,2019-01-24_10h23.29.279,ANT,3.0.0b12,60,,,3,0,3,0,1,2,2,0,96,38,1,95
1.25,right,1,0.614,,,,,,,stim/centre.png,stim/congLeft.png,right,180,001,001,2019-01-24_10h23.29.279,ANT,3.0.0b12,60,,,3,0,3,0,1,2,2,0,96,6,1,95
0.95,right,1,0.581,,,,,,,stim/both.png,stim/neutralRight.png,right,0,001,001,2019-01-24_10h23.29.279,ANT,3.0.0b12,60,,,3,0,3,0,1,2,2,0,96,41,1,95
1.45,left,1,0.495,,,,,,,stim/both.png,stim/neutralRight.png,left,180,001,001,2019-01-24_10h23.29.279,ANT,3.0.0b12,60,,,3,0,3,0,1,2,2,0,96,45,1,95
0.55,right,1,0.597,,,,,,,stim/centre.png,stim/incongRight.png,right,0,001,001,2019-01-24_10h23.29.279,ANT,3.0.0b12,60,,,3,0,3,0,1,2,2,0,96,26,1,95
0.85,right,1,0.58,,,,,,,stim/blank.png,stim/incongRight.png,right,0,001,001,2019-01-24_10h23.29.279,ANT,3.0.0b12,60,,,3,0,3,0,1,2,2,0,96,27,1,95
1.5,right,1,0.546,,,,,,,stim/blank.png,stim/congRight.png,right,0,001,001,2019-01-24_10h23.29.279,ANT,3.0.0b12,60,,,3,0,3,0,1,2,2,0,96,11,1,95
1.2,right,1,0.529,,,,,,,stim/blank.png,stim/neutralRight.png,right,0,001,001,2019-01-24_10h23.29.279,ANT,3.0.0b12,60,,,3,0,3,0,1,2,2,0,96,43,1,95
0.75,right,1,0.446,,,,,,,stim/both.png,stim/incongRight.png,right,0,001,001,2019-01-24_10h23.29.279,ANT,3.0.0b12,60,,,3,0,3,0,1,2,2,0,96,25,1,95
1.55,left,1,0.546,,,,,,,stim/lower.png,stim/neutralRight.png,left,180,001,001,2019-01-24_10h23.29.279,ANT,3.0.0b12,60,,,3,0,3,0,1,2,2,0,96,44,1,95
1.5,right,1,0.445,,,,,,,stim/both.png,stim/neutralLeft.png,right,180,001,001,2019-01-24_10h23.29.279,ANT,3.0.0b12,60,,,3,0,3,0,1,2,2,0,96,37,1,95
0.7,right,1,0.496,,,,,,,stim/centre.png,stim/neutralRight.png,right,0,001,001,2019-01-24_10h23.29.279,ANT,3.0.0b12,60,,,3,0,3,0,1,2,2,0,96,42,1,95
1.55,right,1,0.448,,,,,,,stim/centre.png,stim/congRight.png,right,0,001,001,2019-01-24_10h23.29.279,ANT,3.0.0b12,60,,,3,0,3,0,1,2,2,0,96,10,1,95
0.6,left,1,0.497,,,,,,,stim/blank.png,stim/incongLeft.png,left,0,001,001,2019-01-24_10h23.29.279,ANT,3.0.0b12,60,,,3,0,3,0,1,2,2,0,96,19,1,95
0.95,left,1,0.48,,,,,,,stim/upper.png,stim/congLeft.png,left,0,001,001,2019-01-24_10h23.29.279,ANT,3.0.0b12,60,,,3,0,3,0,1,2,2,0,96,0,1,95
1.5,left,1,0.53,,,,,,,stim/centre.png,stim/congRight.png,left,180,001,001,2019-01-24_10h23.29.279,ANT,3.0.0b12,60,,,3,0,3,0,1,2,2,0,96,14,1,95
0.95,right,1,0.597,,,,,,,stim/both.png,stim/incongLeft.png,right,180,001,001,2019-01-24_10h23.29.279,ANT,3.0.0b12,60,,,3,0,3,0,1,2,2,0,96,21,1,95
1.3,right,1,0.463,,,,,,,stim/upper.png,stim/neutralRight.png,right,0,001,001,2019-01-24_10h23.29.279,ANT,3.0.0b12,60,,,3,0,3,0,1,2,2,0,96,40,1,95
0.8,left,1,0.43,,,,,,,stim/centre.png,stim/congLeft.png,left,0,001,001,2019-01-24_10h23.29.279,ANT,3.0.0b12,60,,,3,0,3,0,1,2,2,0,96,2,1,95
1.2,left,1,0.564,,,,,,,stim/blank.png,stim/congRight.png,left,180,001,001,2019-01-24_10h23.29.279,ANT,3.0.0b12,60,,,3,0,3,0,1,2,2,0,96,15,1,95
1.35,left,1,0.429,,,,,,,stim/both.png,stim/neutralLeft.png,left,0,001,001,2019-01-24_10h23.29.279,ANT,3.0.0b12,60,,,3,0,3,0,1,2,2,0,96,33,1,95
1.55,left,1,0.48,,,,,,,stim/blank.png,stim/congLeft.png,left,0,001,001,2019-01-24_10h23.29.279,ANT,3.0.0b12,60,,,3,0,3,0,1,2,2,0,96,3,1,95
1,left,1,0.43,,,,,,,stim/both.png,stim/congLeft.png,left,0,001,001,2019-01-24_10h23.29.279,ANT,3.0.0b12,60,,,3,0,3,0,1,2,2,0,96,1,1,95
0.8,left,1,0.48,,,,,,,stim/centre.png,stim/neutralLeft.png,left,0,001,001,2019-01-24_10h23.29.279,ANT,3.0.0b12,60,,,3,0,3,0,1,2,2,0,96,34,1,95
1.35,right,1,0.563,,,,,,,stim/upper.png,stim/incongRight.png,right,0,001,001,2019-01-24_10h23.29.279,ANT,3.0.0b12,60,,,3,0,3,0,1,2,2,0,96,24,1,95
0.65,left,1,0.48,,,,,,,stim/blank.png,stim/neutralLeft.png,left,0,001,001,2019-01-24_10h23.29.279,ANT,3.0.0b12,60,,,3,0,3,0,1,2,2,0,96,35,1,95
1.55,right,1,0.596,,,,,,,stim/blank.png,stim/incongLeft.png,right,180,001,001,2019-01-24_10h23.29.279,ANT,3.0.0b12,60,,,3,0,3,0,1,2,2,0,96,23,1,95
0.9,left,1,0.747,,,,,,,stim/both.png,stim/incongRight.png,left,180,001,001,2019-01-24_10h23.29.279,ANT,3.0.0b12,60,,,3,0,3,0,1,2,2,0,96,29,1,95
0.9,left,1,0.496,,,,,,,stim/blank.png,stim/neutralRight.png,left,180,001,001,2019-01-24_10h23.29.279,ANT,3.0.0b12,60,,,3,0,3,0,1,2,2,0,96,47,1,95
,,,,,,,,,,,,,,001,001,2019-01-24_10h23.29.279,ANT,3.0.0b12,60,,,3,0,3,0,1,2,,,,,,
