fixDuration,resp.keys,resp.corr,pracLoop.thisRepN,pracLoop.thisTrialN,pracLoop.thisN,pracLoop.thisIndex,pracLoop.ran,pracLoop.order,cue,tar,corrAns,targOrientation,participant,session,date,expName,psychopyVersion,frameRate,resp.rt,instResp.keys,instResp.rt,blockLoop.thisRepN,blockLoop.thisTrialN,blockLoop.thisN,blockLoop.thisIndex,blockLoop.ran,blockLoop.order,mainLoop.thisRepN,mainLoop.thisTrialN,mainLoop.thisN,mainLoop.thisIndex,mainLoop.ran,mainLoop.order
1.5,,0,1,0,24,18,1,23,stim/centre.png,stim/incongLeft.png,left,0,14,001,2020-05-15_00h58.16.525,ANT,3.1.3,60,,,,,,,,,,,,,,,
0.4,right,1,1,0,24,9,1,23,stim/both.png,stim/congRight.png,right,0,14,001,2020-05-15_00h58.16.525,ANT,3.1.3,60,0.580000162,,,,,,,,,,,,,,
0.45,left,0,1,0,24,20,1,23,stim/lower.png,stim/incongLeft.png,right,180,14,001,2020-05-15_00h58.16.525,ANT,3.1.3,60,0.907999992,,,,,,,,,,,,,,
0.5,right,0,1,0,24,19,1,23,stim/blank.png,stim/incongLeft.png,left,0,14,001,2020-05-15_00h58.16.525,ANT,3.1.3,60,0.727999926,,,,,,,,,,,,,,
0.8,right,1,1,0,24,6,1,23,stim/centre.png,stim/congLeft.png,right,180,14,001,2020-05-15_00h58.16.525,ANT,3.1.3,60,0.528000116,,,,,,,,,,,,,,
1.55,right,1,1,0,24,7,1,23,stim/blank.png,stim/congLeft.png,right,180,14,001,2020-05-15_00h58.16.525,ANT,3.1.3,60,0.479000092,,,,,,,,,,,,,,
0.75,left,0,1,0,24,23,1,23,stim/blank.png,stim/incongLeft.png,right,180,14,001,2020-05-15_00h58.16.525,ANT,3.1.3,60,0.911000013,,,,,,,,,,,,,,
0.5,left,1,1,0,24,0,1,23,stim/upper.png,stim/congLeft.png,left,0,14,001,2020-05-15_00h58.16.525,ANT,3.1.3,60,0.578999996,,,,,,,,,,,,,,
0.75,left,1,1,0,24,13,1,23,stim/both.png,stim/congRight.png,left,180,14,001,2020-05-15_00h58.16.525,ANT,3.1.3,60,0.576999903,,,,,,,,,,,,,,
0.6,right,0,1,0,24,16,1,23,stim/upper.png,stim/incongLeft.png,left,0,14,001,2020-05-15_00h58.16.525,ANT,3.1.3,60,1.412999868,,,,,,,,,,,,,,
0.8,left,1,1,0,24,15,1,23,stim/blank.png,stim/congRight.png,left,180,14,001,2020-05-15_00h58.16.525,ANT,3.1.3,60,0.463999987,,,,,,,,,,,,,,
0.95,left,1,1,0,24,12,1,23,stim/lower.png,stim/congRight.png,left,180,14,001,2020-05-15_00h58.16.525,ANT,3.1.3,60,0.461000204,,,,,,,,,,,,,,
1.5,left,1,1,0,24,3,1,23,stim/blank.png,stim/congLeft.png,left,0,14,001,2020-05-15_00h58.16.525,ANT,3.1.3,60,0.495999813,,,,,,,,,,,,,,
1,left,0,1,0,24,22,1,23,stim/centre.png,stim/incongLeft.png,right,180,14,001,2020-05-15_00h58.16.525,ANT,3.1.3,60,0.713999987,,,,,,,,,,,,,,
0.95,left,1,1,0,24,14,1,23,stim/centre.png,stim/congRight.png,left,180,14,001,2020-05-15_00h58.16.525,ANT,3.1.3,60,0.65899992,,,,,,,,,,,,,,
0.45,right,1,1,0,24,11,1,23,stim/blank.png,stim/congRight.png,right,0,14,001,2020-05-15_00h58.16.525,ANT,3.1.3,60,0.897000074,,,,,,,,,,,,,,
1.45,left,0,1,0,24,21,1,23,stim/both.png,stim/incongLeft.png,right,180,14,001,2020-05-15_00h58.16.525,ANT,3.1.3,60,1.012000084,,,,,,,,,,,,,,
0.55,left,1,1,0,24,2,1,23,stim/centre.png,stim/congLeft.png,left,0,14,001,2020-05-15_00h58.16.525,ANT,3.1.3,60,0.529999971,,,,,,,,,,,,,,
0.55,right,1,1,0,24,10,1,23,stim/centre.png,stim/congRight.png,right,0,14,001,2020-05-15_00h58.16.525,ANT,3.1.3,60,0.614000082,,,,,,,,,,,,,,
0.45,right,1,1,0,24,8,1,23,stim/upper.png,stim/congRight.png,right,0,14,001,2020-05-15_00h58.16.525,ANT,3.1.3,60,0.562999964,,,,,,,,,,,,,,
0.7,left,1,1,0,24,1,1,23,stim/both.png,stim/congLeft.png,left,0,14,001,2020-05-15_00h58.16.525,ANT,3.1.3,60,0.562999964,,,,,,,,,,,,,,
0.85,right,1,1,0,24,4,1,23,stim/lower.png,stim/congLeft.png,right,180,14,001,2020-05-15_00h58.16.525,ANT,3.1.3,60,0.529000044,,,,,,,,,,,,,,
0.45,right,1,1,0,24,5,1,23,stim/both.png,stim/congLeft.png,right,180,14,001,2020-05-15_00h58.16.525,ANT,3.1.3,60,0.529000044,,,,,,,,,,,,,,
0.7,,0,1,0,24,17,1,23,stim/both.png,stim/incongLeft.png,left,0,14,001,2020-05-15_00h58.16.525,ANT,3.1.3,60,,,,,,,,,,,,,,,
1.2,left,1,,,,,,,stim/lower.png,stim/neutralRight.png,left,180,14,001,2020-05-15_00h58.16.525,ANT,3.1.3,60,0.878000021,space,168.7879999,3,0,3,0,1,2,2,0,96,44,1,95
1.05,left,1,,,,,,,stim/both.png,stim/neutralRight.png,left,180,14,001,2020-05-15_00h58.16.525,ANT,3.1.3,60,0.532000065,,,3,0,3,0,1,2,2,0,96,45,1,95
1.2,left,1,,,,,,,stim/both.png,stim/congLeft.png,left,0,14,001,2020-05-15_00h58.16.525,ANT,3.1.3,60,0.496999979,,,3,0,3,0,1,2,2,0,96,1,1,95
1.5,left,1,,,,,,,stim/blank.png,stim/neutralLeft.png,left,0,14,001,2020-05-15_00h58.16.525,ANT,3.1.3,60,0.513999939,,,3,0,3,0,1,2,2,0,96,35,1,95
0.8,left,1,,,,,,,stim/blank.png,stim/congLeft.png,left,0,14,001,2020-05-15_00h58.16.525,ANT,3.1.3,60,0.465000153,,,3,0,3,0,1,2,2,0,96,3,1,95
0.6,right,1,,,,,,,stim/blank.png,stim/congRight.png,right,0,14,001,2020-05-15_00h58.16.525,ANT,3.1.3,60,0.396999836,,,3,0,3,0,1,2,2,0,96,11,1,95
0.7,right,1,,,,,,,stim/centre.png,stim/neutralRight.png,right,0,14,001,2020-05-15_00h58.16.525,ANT,3.1.3,60,0.647000074,,,3,0,3,0,1,2,2,0,96,42,1,95
0.9,right,1,,,,,,,stim/blank.png,stim/neutralRight.png,right,0,14,001,2020-05-15_00h58.16.525,ANT,3.1.3,60,0.447000027,,,3,0,3,0,1,2,2,0,96,43,1,95
0.75,left,1,,,,,,,stim/both.png,stim/neutralLeft.png,left,0,14,001,2020-05-15_00h58.16.525,ANT,3.1.3,60,0.379999876,,,3,0,3,0,1,2,2,0,96,33,1,95
0.85,right,1,,,,,,,stim/lower.png,stim/congLeft.png,right,180,14,001,2020-05-15_00h58.16.525,ANT,3.1.3,60,0.480999947,,,3,0,3,0,1,2,2,0,96,4,1,95
0.45,right,1,,,,,,,stim/both.png,stim/neutralLeft.png,right,180,14,001,2020-05-15_00h58.16.525,ANT,3.1.3,60,0.498000145,,,3,0,3,0,1,2,2,0,96,37,1,95
0.55,left,0,,,,,,,stim/centre.png,stim/incongRight.png,right,0,14,001,2020-05-15_00h58.16.525,ANT,3.1.3,60,0.479999781,,,3,0,3,0,1,2,2,0,96,26,1,95
0.95,left,0,,,,,,,stim/both.png,stim/incongLeft.png,right,180,14,001,2020-05-15_00h58.16.525,ANT,3.1.3,60,1.363000154,,,3,0,3,0,1,2,2,0,96,21,1,95
0.6,left,1,,,,,,,stim/blank.png,stim/neutralRight.png,left,180,14,001,2020-05-15_00h58.16.525,ANT,3.1.3,60,0.565000057,,,3,0,3,0,1,2,2,0,96,47,1,95
0.75,right,1,,,,,,,stim/blank.png,stim/congLeft.png,right,180,14,001,2020-05-15_00h58.16.525,ANT,3.1.3,60,0.430000067,,,3,0,3,0,1,2,2,0,96,7,1,95
0.55,left,1,,,,,,,stim/upper.png,stim/neutralLeft.png,left,0,14,001,2020-05-15_00h58.16.525,ANT,3.1.3,60,0.664000034,,,3,0,3,0,1,2,2,0,96,32,1,95
0.7,right,1,,,,,,,stim/upper.png,stim/congRight.png,right,0,14,001,2020-05-15_00h58.16.525,ANT,3.1.3,60,0.381999969,,,3,0,3,0,1,2,2,0,96,8,1,95
1.5,left,1,,,,,,,stim/centre.png,stim/neutralLeft.png,left,0,14,001,2020-05-15_00h58.16.525,ANT,3.1.3,60,0.546999931,,,3,0,3,0,1,2,2,0,96,34,1,95
1.15,right,0,,,,,,,stim/blank.png,stim/incongRight.png,left,180,14,001,2020-05-15_00h58.16.525,ANT,3.1.3,60,0.444000006,,,3,0,3,0,1,2,2,0,96,31,1,95
0.7,left,1,,,,,,,stim/centre.png,stim/neutralRight.png,left,180,14,001,2020-05-15_00h58.16.525,ANT,3.1.3,60,0.561999798,,,3,0,3,0,1,2,2,0,96,46,1,95
1.4,left,1,,,,,,,stim/centre.png,stim/incongLeft.png,left,0,14,001,2020-05-15_00h58.16.525,ANT,3.1.3,60,1.246999979,,,3,0,3,0,1,2,2,0,96,18,1,95
1.1,,0,,,,,,,stim/both.png,stim/incongRight.png,left,180,14,001,2020-05-15_00h58.16.525,ANT,3.1.3,60,,,,3,0,3,0,1,2,2,0,96,29,1,95
1.5,left,1,,,,,,,stim/centre.png,stim/congRight.png,left,180,14,001,2020-05-15_00h58.16.525,ANT,3.1.3,60,0.445000172,,,3,0,3,0,1,2,2,0,96,14,1,95
0.85,right,1,,,,,,,stim/lower.png,stim/neutralLeft.png,right,180,14,001,2020-05-15_00h58.16.525,ANT,3.1.3,60,0.779999971,,,3,0,3,0,1,2,2,0,96,36,1,95
1.2,right,1,,,,,,,stim/blank.png,stim/neutralLeft.png,right,180,14,001,2020-05-15_00h58.16.525,ANT,3.1.3,60,0.626999855,,,3,0,3,0,1,2,2,0,96,39,1,95
1.45,left,1,,,,,,,stim/blank.png,stim/incongLeft.png,left,0,14,001,2020-05-15_00h58.16.525,ANT,3.1.3,60,1.279999971,,,3,0,3,0,1,2,2,0,96,19,1,95
0.55,right,1,,,,,,,stim/centre.png,stim/neutralLeft.png,right,180,14,001,2020-05-15_00h58.16.525,ANT,3.1.3,60,0.58100009,,,3,0,3,0,1,2,2,0,96,38,1,95
0.8,left,1,,,,,,,stim/lower.png,stim/congRight.png,left,180,14,001,2020-05-15_00h58.16.525,ANT,3.1.3,60,0.480999947,,,3,0,3,0,1,2,2,0,96,12,1,95
1.4,right,1,,,,,,,stim/blank.png,stim/incongLeft.png,right,180,14,001,2020-05-15_00h58.16.525,ANT,3.1.3,60,1.430000067,,,3,0,3,0,1,2,2,0,96,23,1,95
1.4,left,1,,,,,,,stim/upper.png,stim/congLeft.png,left,0,14,001,2020-05-15_00h58.16.525,ANT,3.1.3,60,0.446999788,,,3,0,3,0,1,2,2,0,96,0,1,95
1.5,,0,,,,,,,stim/centre.png,stim/incongLeft.png,right,180,14,001,2020-05-15_00h58.16.525,ANT,3.1.3,60,,,,3,0,3,0,1,2,2,0,96,22,1,95
0.55,left,0,,,,,,,stim/both.png,stim/incongRight.png,right,0,14,001,2020-05-15_00h58.16.525,ANT,3.1.3,60,1.529999971,,,3,0,3,0,1,2,2,0,96,25,1,95
0.5,,0,,,,,,,stim/upper.png,stim/neutralRight.png,right,0,14,001,2020-05-15_00h58.16.525,ANT,3.1.3,60,,,,3,0,3,0,1,2,2,0,96,40,1,95
0.5,right,1,,,,,,,stim/both.png,stim/congRight.png,right,0,14,001,2020-05-15_00h58.16.525,ANT,3.1.3,60,0.513000011,,,3,0,3,0,1,2,2,0,96,9,1,95
0.6,left,1,,,,,,,stim/both.png,stim/congRight.png,left,180,14,001,2020-05-15_00h58.16.525,ANT,3.1.3,60,0.680000067,,,3,0,3,0,1,2,2,0,96,13,1,95
1.15,left,1,,,,,,,stim/centre.png,stim/congLeft.png,left,0,14,001,2020-05-15_00h58.16.525,ANT,3.1.3,60,0.56400013,,,3,0,3,0,1,2,2,0,96,2,1,95
0.85,right,1,,,,,,,stim/blank.png,stim/incongRight.png,right,0,14,001,2020-05-15_00h58.16.525,ANT,3.1.3,60,1.097000122,,,3,0,3,0,1,2,2,0,96,27,1,95
0.65,right,1,,,,,,,stim/upper.png,stim/incongRight.png,right,0,14,001,2020-05-15_00h58.16.525,ANT,3.1.3,60,0.897000074,,,3,0,3,0,1,2,2,0,96,24,1,95
0.45,right,1,,,,,,,stim/lower.png,stim/incongLeft.png,right,180,14,001,2020-05-15_00h58.16.525,ANT,3.1.3,60,0.846999884,,,3,0,3,0,1,2,2,0,96,20,1,95
0.6,left,1,,,,,,,stim/centre.png,stim/incongRight.png,left,180,14,001,2020-05-15_00h58.16.525,ANT,3.1.3,60,1.180999994,,,3,0,3,0,1,2,2,0,96,30,1,95
1.55,right,1,,,,,,,stim/both.png,stim/neutralRight.png,right,0,14,001,2020-05-15_00h58.16.525,ANT,3.1.3,60,0.696000099,,,3,0,3,0,1,2,2,0,96,41,1,95
0.75,right,1,,,,,,,stim/centre.png,stim/congRight.png,right,0,14,001,2020-05-15_00h58.16.525,ANT,3.1.3,60,0.492000103,,,3,0,3,0,1,2,2,0,96,10,1,95
1.55,left,1,,,,,,,stim/upper.png,stim/incongLeft.png,left,0,14,001,2020-05-15_00h58.16.525,ANT,3.1.3,60,0.796999931,,,3,0,3,0,1,2,2,0,96,16,1,95
0.75,right,1,,,,,,,stim/both.png,stim/congLeft.png,right,180,14,001,2020-05-15_00h58.16.525,ANT,3.1.3,60,0.529999971,,,3,0,3,0,1,2,2,0,96,5,1,95
1.45,left,1,,,,,,,stim/blank.png,stim/congRight.png,left,180,14,001,2020-05-15_00h58.16.525,ANT,3.1.3,60,0.496999979,,,3,0,3,0,1,2,2,0,96,15,1,95
0.9,right,1,,,,,,,stim/centre.png,stim/congLeft.png,right,180,14,001,2020-05-15_00h58.16.525,ANT,3.1.3,60,0.463000059,,,3,0,3,0,1,2,2,0,96,6,1,95
0.6,left,1,,,,,,,stim/both.png,stim/incongLeft.png,left,0,14,001,2020-05-15_00h58.16.525,ANT,3.1.3,60,0.84800005,,,3,0,3,0,1,2,2,0,96,17,1,95
0.8,left,1,,,,,,,stim/lower.png,stim/incongRight.png,left,180,14,001,2020-05-15_00h58.16.525,ANT,3.1.3,60,0.781000137,,,3,0,3,0,1,2,2,0,96,28,1,95
0.65,left,1,,,,,,,stim/centre.png,stim/neutralRight.png,left,180,14,001,2020-05-15_00h58.16.525,ANT,3.1.3,60,0.529999971,,,3,0,3,0,1,2,2,0,96,46,1,95
0.6,right,1,,,,,,,stim/blank.png,stim/neutralRight.png,right,0,14,001,2020-05-15_00h58.16.525,ANT,3.1.3,60,0.713000059,,,3,0,3,0,1,2,2,0,96,43,1,95
1.05,right,1,,,,,,,stim/lower.png,stim/incongLeft.png,right,180,14,001,2020-05-15_00h58.16.525,ANT,3.1.3,60,0.930000067,,,3,0,3,0,1,2,2,0,96,20,1,95
1.05,left,1,,,,,,,stim/upper.png,stim/congLeft.png,left,0,14,001,2020-05-15_00h58.16.525,ANT,3.1.3,60,0.445999861,,,3,0,3,0,1,2,2,0,96,0,1,95
1.45,left,1,,,,,,,stim/centre.png,stim/incongLeft.png,left,0,14,001,2020-05-15_00h58.16.525,ANT,3.1.3,60,0.713999987,,,3,0,3,0,1,2,2,0,96,18,1,95
0.8,right,1,,,,,,,stim/upper.png,stim/neutralRight.png,right,0,14,001,2020-05-15_00h58.16.525,ANT,3.1.3,60,0.595999956,,,3,0,3,0,1,2,2,0,96,40,1,95
1.15,left,1,,,,,,,stim/lower.png,stim/congRight.png,left,180,14,001,2020-05-15_00h58.16.525,ANT,3.1.3,60,0.597000122,,,3,0,3,0,1,2,2,0,96,12,1,95
0.45,right,1,,,,,,,stim/blank.png,stim/neutralLeft.png,right,180,14,001,2020-05-15_00h58.16.525,ANT,3.1.3,60,0.647000074,,,3,0,3,0,1,2,2,0,96,39,1,95
0.45,right,1,,,,,,,stim/both.png,stim/congRight.png,right,0,14,001,2020-05-15_00h58.16.525,ANT,3.1.3,60,0.679999828,,,3,0,3,0,1,2,2,0,96,9,1,95
1.25,left,1,,,,,,,stim/both.png,stim/neutralLeft.png,left,0,14,001,2020-05-15_00h58.16.525,ANT,3.1.3,60,0.613000154,,,3,0,3,0,1,2,2,0,96,33,1,95
1.35,right,1,,,,,,,stim/centre.png,stim/incongLeft.png,right,180,14,001,2020-05-15_00h58.16.525,ANT,3.1.3,60,1.08100009,,,3,0,3,0,1,2,2,0,96,22,1,95
0.8,right,1,,,,,,,stim/both.png,stim/neutralRight.png,right,0,14,001,2020-05-15_00h58.16.525,ANT,3.1.3,60,0.530999899,,,3,0,3,0,1,2,2,0,96,41,1,95
1.3,left,1,,,,,,,stim/lower.png,stim/incongRight.png,left,180,14,001,2020-05-15_00h58.16.525,ANT,3.1.3,60,0.729000092,,,3,0,3,0,1,2,2,0,96,28,1,95
0.75,right,1,,,,,,,stim/blank.png,stim/congLeft.png,right,180,14,001,2020-05-15_00h58.16.525,ANT,3.1.3,60,0.513000011,,,3,0,3,0,1,2,2,0,96,7,1,95
1.25,left,1,,,,,,,stim/centre.png,stim/congRight.png,left,180,14,001,2020-05-15_00h58.16.525,ANT,3.1.3,60,0.412999868,,,3,0,3,0,1,2,2,0,96,14,1,95
0.85,right,1,,,,,,,stim/blank.png,stim/incongLeft.png,right,180,14,001,2020-05-15_00h58.16.525,ANT,3.1.3,60,0.663999796,,,3,0,3,0,1,2,2,0,96,23,1,95
1.15,left,1,,,,,,,stim/both.png,stim/congRight.png,left,180,14,001,2020-05-15_00h58.16.525,ANT,3.1.3,60,0.463000059,,,3,0,3,0,1,2,2,0,96,13,1,95
0.55,right,0,,,,,,,stim/blank.png,stim/incongLeft.png,left,0,14,001,2020-05-15_00h58.16.525,ANT,3.1.3,60,0.579999924,,,3,0,3,0,1,2,2,0,96,19,1,95
1.4,left,1,,,,,,,stim/lower.png,stim/neutralRight.png,left,180,14,001,2020-05-15_00h58.16.525,ANT,3.1.3,60,0.563999891,,,3,0,3,0,1,2,2,0,96,44,1,95
0.7,right,1,,,,,,,stim/centre.png,stim/congLeft.png,right,180,14,001,2020-05-15_00h58.16.525,ANT,3.1.3,60,0.696999788,,,3,0,3,0,1,2,2,0,96,6,1,95
0.9,right,1,,,,,,,stim/centre.png,stim/neutralRight.png,right,0,14,001,2020-05-15_00h58.16.525,ANT,3.1.3,60,0.710999966,,,3,0,3,0,1,2,2,0,96,42,1,95
1.4,left,1,,,,,,,stim/both.png,stim/incongRight.png,left,180,14,001,2020-05-15_00h58.16.525,ANT,3.1.3,60,1.062999964,,,3,0,3,0,1,2,2,0,96,29,1,95
0.4,left,1,,,,,,,stim/blank.png,stim/neutralLeft.png,left,0,14,001,2020-05-15_00h58.16.525,ANT,3.1.3,60,0.697000027,,,3,0,3,0,1,2,2,0,96,35,1,95
0.8,left,1,,,,,,,stim/centre.png,stim/congLeft.png,left,0,14,001,2020-05-15_00h58.16.525,ANT,3.1.3,60,0.548000097,,,3,0,3,0,1,2,2,0,96,2,1,95
1.35,right,1,,,,,,,stim/lower.png,stim/neutralLeft.png,right,180,14,001,2020-05-15_00h58.16.525,ANT,3.1.3,60,0.596999884,,,3,0,3,0,1,2,2,0,96,36,1,95
1.3,left,1,,,,,,,stim/centre.png,stim/incongRight.png,left,180,14,001,2020-05-15_00h58.16.525,ANT,3.1.3,60,0.730000019,,,3,0,3,0,1,2,2,0,96,30,1,95
0.55,right,1,,,,,,,stim/lower.png,stim/congLeft.png,right,180,14,001,2020-05-15_00h58.16.525,ANT,3.1.3,60,0.515000105,,,3,0,3,0,1,2,2,0,96,4,1,95
1.1,right,1,,,,,,,stim/centre.png,stim/neutralLeft.png,right,180,14,001,2020-05-15_00h58.16.525,ANT,3.1.3,60,0.730000019,,,3,0,3,0,1,2,2,0,96,38,1,95
1.35,right,1,,,,,,,stim/blank.png,stim/congRight.png,right,0,14,001,2020-05-15_00h58.16.525,ANT,3.1.3,60,0.480999947,,,3,0,3,0,1,2,2,0,96,11,1,95
1.15,right,1,,,,,,,stim/both.png,stim/congLeft.png,right,180,14,001,2020-05-15_00h58.16.525,ANT,3.1.3,60,0.480999947,,,3,0,3,0,1,2,2,0,96,5,1,95
1.2,left,0,,,,,,,stim/blank.png,stim/incongRight.png,right,0,14,001,2020-05-15_00h58.16.525,ANT,3.1.3,60,1.230999947,,,3,0,3,0,1,2,2,0,96,27,1,95
0.95,right,1,,,,,,,stim/centre.png,stim/incongRight.png,right,0,14,001,2020-05-15_00h58.16.525,ANT,3.1.3,60,0.695999861,,,3,0,3,0,1,2,2,0,96,26,1,95
0.8,right,1,,,,,,,stim/centre.png,stim/congRight.png,right,0,14,001,2020-05-15_00h58.16.525,ANT,3.1.3,60,0.479000092,,,3,0,3,0,1,2,2,0,96,10,1,95
1,left,1,,,,,,,stim/blank.png,stim/incongRight.png,left,180,14,001,2020-05-15_00h58.16.525,ANT,3.1.3,60,0.712999821,,,3,0,3,0,1,2,2,0,96,31,1,95
1.45,left,1,,,,,,,stim/both.png,stim/incongLeft.png,left,0,14,001,2020-05-15_00h58.16.525,ANT,3.1.3,60,0.711999893,,,3,0,3,0,1,2,2,0,96,17,1,95
0.55,left,1,,,,,,,stim/blank.png,stim/congRight.png,left,180,14,001,2020-05-15_00h58.16.525,ANT,3.1.3,60,0.53000021,,,3,0,3,0,1,2,2,0,96,15,1,95
1.1,right,1,,,,,,,stim/upper.png,stim/incongRight.png,right,0,14,001,2020-05-15_00h58.16.525,ANT,3.1.3,60,0.763000011,,,3,0,3,0,1,2,2,0,96,24,1,95
1.5,right,1,,,,,,,stim/upper.png,stim/congRight.png,right,0,14,001,2020-05-15_00h58.16.525,ANT,3.1.3,60,0.546000004,,,3,0,3,0,1,2,2,0,96,8,1,95
1.1,left,1,,,,,,,stim/both.png,stim/congLeft.png,left,0,14,001,2020-05-15_00h58.16.525,ANT,3.1.3,60,0.496000051,,,3,0,3,0,1,2,2,0,96,1,1,95
0.4,right,1,,,,,,,stim/both.png,stim/incongRight.png,right,0,14,001,2020-05-15_00h58.16.525,ANT,3.1.3,60,0.729000092,,,3,0,3,0,1,2,2,0,96,25,1,95
1.1,left,1,,,,,,,stim/both.png,stim/neutralRight.png,left,180,14,001,2020-05-15_00h58.16.525,ANT,3.1.3,60,0.613000154,,,3,0,3,0,1,2,2,0,96,45,1,95
1.3,right,1,,,,,,,stim/both.png,stim/neutralLeft.png,right,180,14,001,2020-05-15_00h58.16.525,ANT,3.1.3,60,0.628999949,,,3,0,3,0,1,2,2,0,96,37,1,95
0.45,left,1,,,,,,,stim/centre.png,stim/neutralLeft.png,left,0,14,001,2020-05-15_00h58.16.525,ANT,3.1.3,60,0.612999916,,,3,0,3,0,1,2,2,0,96,34,1,95
0.55,left,1,,,,,,,stim/blank.png,stim/neutralRight.png,left,180,14,001,2020-05-15_00h58.16.525,ANT,3.1.3,60,0.614000082,,,3,0,3,0,1,2,2,0,96,47,1,95
0.65,left,1,,,,,,,stim/blank.png,stim/congLeft.png,left,0,14,001,2020-05-15_00h58.16.525,ANT,3.1.3,60,0.511999846,,,3,0,3,0,1,2,2,0,96,3,1,95
1.45,right,1,,,,,,,stim/both.png,stim/incongLeft.png,right,180,14,001,2020-05-15_00h58.16.525,ANT,3.1.3,60,0.730000019,,,3,0,3,0,1,2,2,0,96,21,1,95
1.35,left,1,,,,,,,stim/upper.png,stim/incongLeft.png,left,0,14,001,2020-05-15_00h58.16.525,ANT,3.1.3,60,0.747000217,,,3,0,3,0,1,2,2,0,96,16,1,95
0.55,left,1,,,,,,,stim/upper.png,stim/neutralLeft.png,left,0,14,001,2020-05-15_00h58.16.525,ANT,3.1.3,60,0.546999931,,,3,0,3,0,1,2,2,0,96,32,1,95
,,,,,,,,,,,,,14,001,2020-05-15_00h58.16.525,ANT,3.1.3,60,,,,3,0,3,0,1,2,,,,,,
0.8,right,1,,,,,,,stim/both.png,stim/incongRight.png,right,0,14,001,2020-05-15_00h58.16.525,ANT,3.1.3,60,0.814999819,,,3,0,3,0,1,2,2,0,96,25,1,95
0.4,left,1,,,,,,,stim/lower.png,stim/incongRight.png,left,180,14,001,2020-05-15_00h58.16.525,ANT,3.1.3,60,0.796000004,,,3,0,3,0,1,2,2,0,96,28,1,95
0.75,right,1,,,,,,,stim/blank.png,stim/congLeft.png,right,180,14,001,2020-05-15_00h58.16.525,ANT,3.1.3,60,0.546999931,,,3,0,3,0,1,2,2,0,96,7,1,95
1.15,left,1,,,,,,,stim/both.png,stim/neutralRight.png,left,180,14,001,2020-05-15_00h58.16.525,ANT,3.1.3,60,0.529999971,,,3,0,3,0,1,2,2,0,96,45,1,95
0.8,left,1,,,,,,,stim/blank.png,stim/neutralRight.png,left,180,14,001,2020-05-15_00h58.16.525,ANT,3.1.3,60,0.496999979,,,3,0,3,0,1,2,2,0,96,47,1,95
0.95,right,1,,,,,,,stim/centre.png,stim/congLeft.png,right,180,14,001,2020-05-15_00h58.16.525,ANT,3.1.3,60,0.680000067,,,3,0,3,0,1,2,2,0,96,6,1,95
1,left,1,,,,,,,stim/blank.png,stim/congLeft.png,left,0,14,001,2020-05-15_00h58.16.525,ANT,3.1.3,60,0.494999886,,,3,0,3,0,1,2,2,0,96,3,1,95
1.15,right,1,,,,,,,stim/upper.png,stim/neutralRight.png,right,0,14,001,2020-05-15_00h58.16.525,ANT,3.1.3,60,0.496999979,,,3,0,3,0,1,2,2,0,96,40,1,95
1.45,right,1,,,,,,,stim/centre.png,stim/incongLeft.png,right,180,14,001,2020-05-15_00h58.16.525,ANT,3.1.3,60,0.746000051,,,3,0,3,0,1,2,2,0,96,22,1,95
1.2,right,1,,,,,,,stim/both.png,stim/neutralRight.png,right,0,14,001,2020-05-15_00h58.16.525,ANT,3.1.3,60,0.631000042,,,3,0,3,0,1,2,2,0,96,41,1,95
1.5,right,1,,,,,,,stim/upper.png,stim/congRight.png,right,0,14,001,2020-05-15_00h58.16.525,ANT,3.1.3,60,0.511000156,,,3,0,3,0,1,2,2,0,96,8,1,95
0.8,right,1,,,,,,,stim/blank.png,stim/incongRight.png,right,0,14,001,2020-05-15_00h58.16.525,ANT,3.1.3,60,0.779000044,,,3,0,3,0,1,2,2,0,96,27,1,95
0.6,right,1,,,,,,,stim/blank.png,stim/neutralRight.png,right,0,14,001,2020-05-15_00h58.16.525,ANT,3.1.3,60,0.50999999,,,3,0,3,0,1,2,2,0,96,43,1,95
1.5,left,1,,,,,,,stim/centre.png,stim/congRight.png,left,180,14,001,2020-05-15_00h58.16.525,ANT,3.1.3,60,0.529999971,,,3,0,3,0,1,2,2,0,96,14,1,95
1.3,left,1,,,,,,,stim/lower.png,stim/neutralRight.png,left,180,14,001,2020-05-15_00h58.16.525,ANT,3.1.3,60,0.611999989,,,3,0,3,0,1,2,2,0,96,44,1,95
0.55,right,1,,,,,,,stim/lower.png,stim/congLeft.png,right,180,14,001,2020-05-15_00h58.16.525,ANT,3.1.3,60,0.496000051,,,3,0,3,0,1,2,2,0,96,4,1,95
0.4,left,1,,,,,,,stim/centre.png,stim/neutralRight.png,left,180,14,001,2020-05-15_00h58.16.525,ANT,3.1.3,60,0.562999964,,,3,0,3,0,1,2,2,0,96,46,1,95
1.25,right,1,,,,,,,stim/both.png,stim/congLeft.png,right,180,14,001,2020-05-15_00h58.16.525,ANT,3.1.3,60,0.445000172,,,3,0,3,0,1,2,2,0,96,5,1,95
0.95,left,1,,,,,,,stim/centre.png,stim/incongRight.png,left,180,14,001,2020-05-15_00h58.16.525,ANT,3.1.3,60,0.711999893,,,3,0,3,0,1,2,2,0,96,30,1,95
0.65,right,1,,,,,,,stim/blank.png,stim/incongLeft.png,right,180,14,001,2020-05-15_00h58.16.525,ANT,3.1.3,60,0.830999851,,,3,0,3,0,1,2,2,0,96,23,1,95
0.65,left,1,,,,,,,stim/upper.png,stim/neutralLeft.png,left,0,14,001,2020-05-15_00h58.16.525,ANT,3.1.3,60,0.59800005,,,3,0,3,0,1,2,2,0,96,32,1,95
1.1,right,1,,,,,,,stim/blank.png,stim/congRight.png,right,0,14,001,2020-05-15_00h58.16.525,ANT,3.1.3,60,0.612999916,,,3,0,3,0,1,2,2,0,96,11,1,95
0.75,left,1,,,,,,,stim/upper.png,stim/congLeft.png,left,0,14,001,2020-05-15_00h58.16.525,ANT,3.1.3,60,0.546999931,,,3,0,3,0,1,2,2,0,96,0,1,95
0.5,left,1,,,,,,,stim/both.png,stim/incongRight.png,left,180,14,001,2020-05-15_00h58.16.525,ANT,3.1.3,60,0.930000067,,,3,0,3,0,1,2,2,0,96,29,1,95
1.25,left,1,,,,,,,stim/centre.png,stim/neutralLeft.png,left,0,14,001,2020-05-15_00h58.16.525,ANT,3.1.3,60,0.612999916,,,3,0,3,0,1,2,2,0,96,34,1,95
0.9,left,1,,,,,,,stim/blank.png,stim/incongLeft.png,left,0,14,001,2020-05-15_00h58.16.525,ANT,3.1.3,60,0.680999994,,,3,0,3,0,1,2,2,0,96,19,1,95
0.45,left,1,,,,,,,stim/lower.png,stim/congRight.png,left,180,14,001,2020-05-15_00h58.16.525,ANT,3.1.3,60,0.563000202,,,3,0,3,0,1,2,2,0,96,12,1,95
1.2,left,1,,,,,,,stim/centre.png,stim/congLeft.png,left,0,14,001,2020-05-15_00h58.16.525,ANT,3.1.3,60,0.493000031,,,3,0,3,0,1,2,2,0,96,2,1,95
0.75,left,1,,,,,,,stim/both.png,stim/neutralLeft.png,left,0,14,001,2020-05-15_00h58.16.525,ANT,3.1.3,60,0.614000082,,,3,0,3,0,1,2,2,0,96,33,1,95
1.5,right,1,,,,,,,stim/lower.png,stim/incongLeft.png,right,180,14,001,2020-05-15_00h58.16.525,ANT,3.1.3,60,0.864000082,,,3,0,3,0,1,2,2,0,96,20,1,95
0.95,right,1,,,,,,,stim/both.png,stim/congRight.png,right,0,14,001,2020-05-15_00h58.16.525,ANT,3.1.3,60,0.562999964,,,3,0,3,0,1,2,2,0,96,9,1,95
1.15,right,1,,,,,,,stim/both.png,stim/incongLeft.png,right,180,14,001,2020-05-15_00h58.16.525,ANT,3.1.3,60,0.764000177,,,3,0,3,0,1,2,2,0,96,21,1,95
0.55,right,1,,,,,,,stim/centre.png,stim/congRight.png,right,0,14,001,2020-05-15_00h58.16.525,ANT,3.1.3,60,0.546000004,,,3,0,3,0,1,2,2,0,96,10,1,95
1.45,right,1,,,,,,,stim/centre.png,stim/incongRight.png,right,0,14,001,2020-05-15_00h58.16.525,ANT,3.1.3,60,0.631000042,,,3,0,3,0,1,2,2,0,96,26,1,95
0.95,left,1,,,,,,,stim/centre.png,stim/incongLeft.png,left,0,14,001,2020-05-15_00h58.16.525,ANT,3.1.3,60,0.796000004,,,3,0,3,0,1,2,2,0,96,18,1,95
0.7,left,1,,,,,,,stim/both.png,stim/incongLeft.png,left,0,14,001,2020-05-15_00h58.16.525,ANT,3.1.3,60,0.680000067,,,3,0,3,0,1,2,2,0,96,17,1,95
0.55,right,1,,,,,,,stim/both.png,stim/neutralLeft.png,right,180,14,001,2020-05-15_00h58.16.525,ANT,3.1.3,60,0.763999939,,,3,0,3,0,1,2,2,0,96,37,1,95
0.8,right,1,,,,,,,stim/lower.png,stim/neutralLeft.png,right,180,14,001,2020-05-15_00h58.16.525,ANT,3.1.3,60,0.562999964,,,3,0,3,0,1,2,2,0,96,36,1,95
0.95,right,1,,,,,,,stim/centre.png,stim/neutralRight.png,right,0,14,001,2020-05-15_00h58.16.525,ANT,3.1.3,60,0.576999903,,,3,0,3,0,1,2,2,0,96,42,1,95
1.2,right,1,,,,,,,stim/centre.png,stim/neutralLeft.png,right,180,14,001,2020-05-15_00h58.16.525,ANT,3.1.3,60,0.607999802,,,3,0,3,0,1,2,2,0,96,38,1,95
1.25,left,1,,,,,,,stim/both.png,stim/congRight.png,left,180,14,001,2020-05-15_00h58.16.525,ANT,3.1.3,60,0.478999853,,,3,0,3,0,1,2,2,0,96,13,1,95
1.35,left,1,,,,,,,stim/blank.png,stim/neutralLeft.png,left,0,14,001,2020-05-15_00h58.16.525,ANT,3.1.3,60,0.613999844,,,3,0,3,0,1,2,2,0,96,35,1,95
1.35,left,1,,,,,,,stim/blank.png,stim/congRight.png,left,180,14,001,2020-05-15_00h58.16.525,ANT,3.1.3,60,0.611999989,,,3,0,3,0,1,2,2,0,96,15,1,95
0.75,right,1,,,,,,,stim/upper.png,stim/incongRight.png,right,0,14,001,2020-05-15_00h58.16.525,ANT,3.1.3,60,0.628999949,,,3,0,3,0,1,2,2,0,96,24,1,95
1.25,left,1,,,,,,,stim/upper.png,stim/incongLeft.png,left,0,14,001,2020-05-15_00h58.16.525,ANT,3.1.3,60,0.595999956,,,3,0,3,0,1,2,2,0,96,16,1,95
0.7,left,1,,,,,,,stim/blank.png,stim/incongRight.png,left,180,14,001,2020-05-15_00h58.16.525,ANT,3.1.3,60,0.978999853,,,3,0,3,0,1,2,2,0,96,31,1,95
0.45,right,1,,,,,,,stim/blank.png,stim/neutralLeft.png,right,180,14,001,2020-05-15_00h58.16.525,ANT,3.1.3,60,0.512000084,,,3,0,3,0,1,2,2,0,96,39,1,95
1.55,left,1,,,,,,,stim/both.png,stim/congLeft.png,left,0,14,001,2020-05-15_00h58.16.525,ANT,3.1.3,60,0.513000011,,,3,0,3,0,1,2,2,0,96,1,1,95
0.4,right,1,,,,,,,stim/centre.png,stim/congLeft.png,right,180,14,001,2020-05-15_00h58.16.525,ANT,3.1.3,60,0.493999958,,,3,0,3,0,1,2,2,0,96,6,1,95
1.2,right,1,,,,,,,stim/centre.png,stim/neutralLeft.png,right,180,14,001,2020-05-15_00h58.16.525,ANT,3.1.3,60,0.746999979,,,3,0,3,0,1,2,2,0,96,38,1,95
1.3,right,1,,,,,,,stim/both.png,stim/incongLeft.png,right,180,14,001,2020-05-15_00h58.16.525,ANT,3.1.3,60,0.963000059,,,3,0,3,0,1,2,2,0,96,21,1,95
1.55,right,1,,,,,,,stim/upper.png,stim/congRight.png,right,0,14,001,2020-05-15_00h58.16.525,ANT,3.1.3,60,0.546000004,,,3,0,3,0,1,2,2,0,96,8,1,95
1.3,right,1,,,,,,,stim/blank.png,stim/neutralLeft.png,right,180,14,001,2020-05-15_00h58.16.525,ANT,3.1.3,60,0.861000061,,,3,0,3,0,1,2,2,0,96,39,1,95
1.05,left,1,,,,,,,stim/upper.png,stim/neutralLeft.png,left,0,14,001,2020-05-15_00h58.16.525,ANT,3.1.3,60,0.596999884,,,3,0,3,0,1,2,2,0,96,32,1,95
1,right,1,,,,,,,stim/upper.png,stim/neutralRight.png,right,0,14,001,2020-05-15_00h58.16.525,ANT,3.1.3,60,0.578000069,,,3,0,3,0,1,2,2,0,96,40,1,95
1.5,left,1,,,,,,,stim/blank.png,stim/congLeft.png,left,0,14,001,2020-05-15_00h58.16.525,ANT,3.1.3,60,0.546999931,,,3,0,3,0,1,2,2,0,96,3,1,95
1,right,1,,,,,,,stim/both.png,stim/incongRight.png,right,0,14,001,2020-05-15_00h58.16.525,ANT,3.1.3,60,0.710000038,,,3,0,3,0,1,2,2,0,96,25,1,95
1.45,left,1,,,,,,,stim/centre.png,stim/congLeft.png,left,0,14,001,2020-05-15_00h58.16.525,ANT,3.1.3,60,0.463000059,,,3,0,3,0,1,2,2,0,96,2,1,95
0.6,left,1,,,,,,,stim/blank.png,stim/neutralRight.png,left,180,14,001,2020-05-15_00h58.16.525,ANT,3.1.3,60,0.811999798,,,3,0,3,0,1,2,2,0,96,47,1,95
0.6,left,1,,,,,,,stim/both.png,stim/neutralRight.png,left,180,14,001,2020-05-15_00h58.16.525,ANT,3.1.3,60,0.763000011,,,3,0,3,0,1,2,2,0,96,45,1,95
1.55,left,1,,,,,,,stim/upper.png,stim/congLeft.png,left,0,14,001,2020-05-15_00h58.16.525,ANT,3.1.3,60,0.496999979,,,3,0,3,0,1,2,2,0,96,0,1,95
1.45,left,1,,,,,,,stim/both.png,stim/congRight.png,left,180,14,001,2020-05-15_00h58.16.525,ANT,3.1.3,60,0.492000103,,,3,0,3,0,1,2,2,0,96,13,1,95
0.85,left,1,,,,,,,stim/lower.png,stim/neutralRight.png,left,180,14,001,2020-05-15_00h58.16.525,ANT,3.1.3,60,0.480999947,,,3,0,3,0,1,2,2,0,96,44,1,95
0.4,right,1,,,,,,,stim/lower.png,stim/neutralLeft.png,right,180,14,001,2020-05-15_00h58.16.525,ANT,3.1.3,60,0.611000061,,,3,0,3,0,1,2,2,0,96,36,1,95
1.3,left,1,,,,,,,stim/lower.png,stim/incongRight.png,left,180,14,001,2020-05-15_00h58.16.525,ANT,3.1.3,60,0.928999901,,,3,0,3,0,1,2,2,0,96,28,1,95
1.1,left,1,,,,,,,stim/both.png,stim/incongLeft.png,left,0,14,001,2020-05-15_00h58.16.525,ANT,3.1.3,60,0.847000122,,,3,0,3,0,1,2,2,0,96,17,1,95
1.5,left,1,,,,,,,stim/centre.png,stim/congRight.png,left,180,14,001,2020-05-15_00h58.16.525,ANT,3.1.3,60,0.529999971,,,3,0,3,0,1,2,2,0,96,14,1,95
1.15,left,1,,,,,,,stim/lower.png,stim/congRight.png,left,180,14,001,2020-05-15_00h58.16.525,ANT,3.1.3,60,0.463000059,,,3,0,3,0,1,2,2,0,96,12,1,95
0.9,right,1,,,,,,,stim/blank.png,stim/congRight.png,right,0,14,001,2020-05-15_00h58.16.525,ANT,3.1.3,60,0.530999899,,,3,0,3,0,1,2,2,0,96,11,1,95
1.1,right,1,,,,,,,stim/both.png,stim/neutralLeft.png,right,180,14,001,2020-05-15_00h58.16.525,ANT,3.1.3,60,0.661000013,,,3,0,3,0,1,2,2,0,96,37,1,95
0.85,left,1,,,,,,,stim/blank.png,stim/neutralLeft.png,left,0,14,001,2020-05-15_00h58.16.525,ANT,3.1.3,60,0.546000004,,,3,0,3,0,1,2,2,0,96,35,1,95
0.85,right,1,,,,,,,stim/centre.png,stim/incongRight.png,right,0,14,001,2020-05-15_00h58.16.525,ANT,3.1.3,60,0.746999979,,,3,0,3,0,1,2,2,0,96,26,1,95
0.4,right,1,,,,,,,stim/centre.png,stim/incongLeft.png,right,180,14,001,2020-05-15_00h58.16.525,ANT,3.1.3,60,0.781000137,,,3,0,3,0,1,2,2,0,96,22,1,95
0.75,right,1,,,,,,,stim/blank.png,stim/congLeft.png,right,180,14,001,2020-05-15_00h58.16.525,ANT,3.1.3,60,0.53000021,,,3,0,3,0,1,2,2,0,96,7,1,95
1.35,left,1,,,,,,,stim/both.png,stim/neutralLeft.png,left,0,14,001,2020-05-15_00h58.16.525,ANT,3.1.3,60,0.625,,,3,0,3,0,1,2,2,0,96,33,1,95
1.25,left,1,,,,,,,stim/upper.png,stim/incongLeft.png,left,0,14,001,2020-05-15_00h58.16.525,ANT,3.1.3,60,0.630000114,,,3,0,3,0,1,2,2,0,96,16,1,95
1.1,left,1,,,,,,,stim/centre.png,stim/neutralRight.png,left,180,14,001,2020-05-15_00h58.16.525,ANT,3.1.3,60,0.612999916,,,3,0,3,0,1,2,2,0,96,46,1,95
1.3,left,1,,,,,,,stim/centre.png,stim/incongLeft.png,left,0,14,001,2020-05-15_00h58.16.525,ANT,3.1.3,60,0.763999939,,,3,0,3,0,1,2,2,0,96,18,1,95
1.35,right,1,,,,,,,stim/lower.png,stim/congLeft.png,right,180,14,001,2020-05-15_00h58.16.525,ANT,3.1.3,60,0.497999907,,,3,0,3,0,1,2,2,0,96,4,1,95
0.7,left,1,,,,,,,stim/centre.png,stim/incongRight.png,left,180,14,001,2020-05-15_00h58.16.525,ANT,3.1.3,60,0.713000059,,,3,0,3,0,1,2,2,0,96,30,1,95
0.65,left,1,,,,,,,stim/both.png,stim/incongRight.png,left,180,14,001,2020-05-15_00h58.16.525,ANT,3.1.3,60,0.614000082,,,3,0,3,0,1,2,2,0,96,29,1,95
1.5,right,1,,,,,,,stim/both.png,stim/neutralRight.png,right,0,14,001,2020-05-15_00h58.16.525,ANT,3.1.3,60,0.912999868,,,3,0,3,0,1,2,2,0,96,41,1,95
1.4,left,1,,,,,,,stim/both.png,stim/congLeft.png,left,0,14,001,2020-05-15_00h58.16.525,ANT,3.1.3,60,0.479000092,,,3,0,3,0,1,2,2,0,96,1,1,95
0.45,right,1,,,,,,,stim/centre.png,stim/congRight.png,right,0,14,001,2020-05-15_00h58.16.525,ANT,3.1.3,60,0.528999805,,,3,0,3,0,1,2,2,0,96,10,1,95
1.4,right,1,,,,,,,stim/centre.png,stim/neutralRight.png,right,0,14,001,2020-05-15_00h58.16.525,ANT,3.1.3,60,0.614000082,,,3,0,3,0,1,2,2,0,96,42,1,95
0.75,left,1,,,,,,,stim/blank.png,stim/congRight.png,left,180,14,001,2020-05-15_00h58.16.525,ANT,3.1.3,60,0.647000074,,,3,0,3,0,1,2,2,0,96,15,1,95
0.55,left,1,,,,,,,stim/centre.png,stim/neutralLeft.png,left,0,14,001,2020-05-15_00h58.16.525,ANT,3.1.3,60,0.580000162,,,3,0,3,0,1,2,2,0,96,34,1,95
1,right,1,,,,,,,stim/upper.png,stim/incongRight.png,right,0,14,001,2020-05-15_00h58.16.525,ANT,3.1.3,60,1.128999949,,,3,0,3,0,1,2,2,0,96,24,1,95
0.8,right,1,,,,,,,stim/blank.png,stim/neutralRight.png,right,0,14,001,2020-05-15_00h58.16.525,ANT,3.1.3,60,0.56400013,,,3,0,3,0,1,2,2,0,96,43,1,95
0.5,left,1,,,,,,,stim/blank.png,stim/incongRight.png,left,180,14,001,2020-05-15_00h58.16.525,ANT,3.1.3,60,0.843999863,,,3,0,3,0,1,2,2,0,96,31,1,95
0.5,right,1,,,,,,,stim/lower.png,stim/incongLeft.png,right,180,14,001,2020-05-15_00h58.16.525,ANT,3.1.3,60,0.880000114,,,3,0,3,0,1,2,2,0,96,20,1,95
0.85,right,1,,,,,,,stim/both.png,stim/congLeft.png,right,180,14,001,2020-05-15_00h58.16.525,ANT,3.1.3,60,0.578999996,,,3,0,3,0,1,2,2,0,96,5,1,95
0.8,right,1,,,,,,,stim/both.png,stim/congRight.png,right,0,14,001,2020-05-15_00h58.16.525,ANT,3.1.3,60,0.544000149,,,3,0,3,0,1,2,2,0,96,9,1,95
0.8,right,1,,,,,,,stim/blank.png,stim/incongLeft.png,right,180,14,001,2020-05-15_00h58.16.525,ANT,3.1.3,60,0.863999844,,,3,0,3,0,1,2,2,0,96,23,1,95
0.85,right,1,,,,,,,stim/blank.png,stim/incongRight.png,right,0,14,001,2020-05-15_00h58.16.525,ANT,3.1.3,60,0.779999971,,,3,0,3,0,1,2,2,0,96,27,1,95
0.95,left,1,,,,,,,stim/blank.png,stim/incongLeft.png,left,0,14,001,2020-05-15_00h58.16.525,ANT,3.1.3,60,0.777000189,,,3,0,3,0,1,2,2,0,96,19,1,95
,,,,,,,,,,,,,14,001,2020-05-15_00h58.16.525,ANT,3.1.3,60,,,,3,0,3,0,1,2,,,,,,
1.1,left,1,,,,,,,stim/centre.png,stim/neutralLeft.png,left,0,14,001,2020-05-15_00h58.16.525,ANT,3.1.3,60,0.648000002,,,3,0,3,0,1,2,2,0,96,34,1,95
1.2,left,1,,,,,,,stim/both.png,stim/incongRight.png,left,180,14,001,2020-05-15_00h58.16.525,ANT,3.1.3,60,0.996999979,,,3,0,3,0,1,2,2,0,96,29,1,95
1.05,right,1,,,,,,,stim/upper.png,stim/congRight.png,right,0,14,001,2020-05-15_00h58.16.525,ANT,3.1.3,60,0.477999926,,,3,0,3,0,1,2,2,0,96,8,1,95
0.65,right,1,,,,,,,stim/upper.png,stim/neutralRight.png,right,0,14,001,2020-05-15_00h58.16.525,ANT,3.1.3,60,0.579999924,,,3,0,3,0,1,2,2,0,96,40,1,95
1.4,left,1,,,,,,,stim/upper.png,stim/congLeft.png,left,0,14,001,2020-05-15_00h58.16.525,ANT,3.1.3,60,0.444000006,,,3,0,3,0,1,2,2,0,96,0,1,95
1.3,left,1,,,,,,,stim/centre.png,stim/incongLeft.png,left,0,14,001,2020-05-15_00h58.16.525,ANT,3.1.3,60,0.678999901,,,3,0,3,0,1,2,2,0,96,18,1,95
0.4,right,1,,,,,,,stim/blank.png,stim/incongRight.png,right,0,14,001,2020-05-15_00h58.16.525,ANT,3.1.3,60,0.664000034,,,3,0,3,0,1,2,2,0,96,27,1,95
0.45,left,1,,,,,,,stim/centre.png,stim/neutralRight.png,left,180,14,001,2020-05-15_00h58.16.525,ANT,3.1.3,60,0.529999971,,,3,0,3,0,1,2,2,0,96,46,1,95
0.8,left,1,,,,,,,stim/centre.png,stim/incongRight.png,left,180,14,001,2020-05-15_00h58.16.525,ANT,3.1.3,60,0.727999926,,,3,0,3,0,1,2,2,0,96,30,1,95
0.45,right,1,,,,,,,stim/blank.png,stim/congLeft.png,right,180,14,001,2020-05-15_00h58.16.525,ANT,3.1.3,60,0.480000019,,,3,0,3,0,1,2,2,0,96,7,1,95
0.45,left,1,,,,,,,stim/upper.png,stim/neutralLeft.png,left,0,14,001,2020-05-15_00h58.16.525,ANT,3.1.3,60,0.596999884,,,3,0,3,0,1,2,2,0,96,32,1,95
1.45,right,1,,,,,,,stim/centre.png,stim/incongRight.png,right,0,14,001,2020-05-15_00h58.16.525,ANT,3.1.3,60,0.779999971,,,3,0,3,0,1,2,2,0,96,26,1,95
0.65,left,1,,,,,,,stim/both.png,stim/congLeft.png,left,0,14,001,2020-05-15_00h58.16.525,ANT,3.1.3,60,0.54700017,,,3,0,3,0,1,2,2,0,96,1,1,95
1.2,right,1,,,,,,,stim/both.png,stim/congLeft.png,right,180,14,001,2020-05-15_00h58.16.525,ANT,3.1.3,60,0.481000185,,,3,0,3,0,1,2,2,0,96,5,1,95
1.55,left,1,,,,,,,stim/blank.png,stim/neutralLeft.png,left,0,14,001,2020-05-15_00h58.16.525,ANT,3.1.3,60,0.54700017,,,3,0,3,0,1,2,2,0,96,35,1,95
0.7,right,1,,,,,,,stim/centre.png,stim/incongLeft.png,right,180,14,001,2020-05-15_00h58.16.525,ANT,3.1.3,60,0.697000027,,,3,0,3,0,1,2,2,0,96,22,1,95
0.5,left,1,,,,,,,stim/both.png,stim/incongLeft.png,left,0,14,001,2020-05-15_00h58.16.525,ANT,3.1.3,60,0.813999891,,,3,0,3,0,1,2,2,0,96,17,1,95
0.8,right,1,,,,,,,stim/lower.png,stim/congLeft.png,right,180,14,001,2020-05-15_00h58.16.525,ANT,3.1.3,60,0.477999926,,,3,0,3,0,1,2,2,0,96,4,1,95
0.4,right,1,,,,,,,stim/blank.png,stim/neutralLeft.png,right,180,14,001,2020-05-15_00h58.16.525,ANT,3.1.3,60,0.647000074,,,3,0,3,0,1,2,2,0,96,39,1,95
0.55,right,1,,,,,,,stim/centre.png,stim/congLeft.png,right,180,14,001,2020-05-15_00h58.16.525,ANT,3.1.3,60,0.528000116,,,3,0,3,0,1,2,2,0,96,6,1,95
0.9,right,1,,,,,,,stim/both.png,stim/incongLeft.png,right,180,14,001,2020-05-15_00h58.16.525,ANT,3.1.3,60,0.897000074,,,3,0,3,0,1,2,2,0,96,21,1,95
1.2,left,1,,,,,,,stim/lower.png,stim/incongRight.png,left,180,14,001,2020-05-15_00h58.16.525,ANT,3.1.3,60,0.846999884,,,3,0,3,0,1,2,2,0,96,28,1,95
0.4,right,1,,,,,,,stim/both.png,stim/neutralLeft.png,right,180,14,001,2020-05-15_00h58.16.525,ANT,3.1.3,60,0.547999859,,,3,0,3,0,1,2,2,0,96,37,1,95
0.45,left,1,,,,,,,stim/blank.png,stim/incongLeft.png,left,0,14,001,2020-05-15_00h58.16.525,ANT,3.1.3,60,0.763000011,,,3,0,3,0,1,2,2,0,96,19,1,95
0.95,right,1,,,,,,,stim/centre.png,stim/neutralRight.png,right,0,14,001,2020-05-15_00h58.16.525,ANT,3.1.3,60,0.548000097,,,3,0,3,0,1,2,2,0,96,42,1,95
0.4,right,1,,,,,,,stim/blank.png,stim/congRight.png,right,0,14,001,2020-05-15_00h58.16.525,ANT,3.1.3,60,0.647000074,,,3,0,3,0,1,2,2,0,96,11,1,95
1.5,left,1,,,,,,,stim/both.png,stim/neutralLeft.png,left,0,14,001,2020-05-15_00h58.16.525,ANT,3.1.3,60,0.663000107,,,3,0,3,0,1,2,2,0,96,33,1,95
0.5,left,1,,,,,,,stim/both.png,stim/neutralRight.png,left,180,14,001,2020-05-15_00h58.16.525,ANT,3.1.3,60,0.561999798,,,3,0,3,0,1,2,2,0,96,45,1,95
0.9,right,1,,,,,,,stim/both.png,stim/neutralRight.png,right,0,14,001,2020-05-15_00h58.16.525,ANT,3.1.3,60,0.562999964,,,3,0,3,0,1,2,2,0,96,41,1,95
1.05,right,1,,,,,,,stim/blank.png,stim/neutralRight.png,right,0,14,001,2020-05-15_00h58.16.525,ANT,3.1.3,60,0.546999931,,,3,0,3,0,1,2,2,0,96,43,1,95
0.7,left,1,,,,,,,stim/both.png,stim/congRight.png,left,180,14,001,2020-05-15_00h58.16.525,ANT,3.1.3,60,0.54399991,,,3,0,3,0,1,2,2,0,96,13,1,95
0.75,right,1,,,,,,,stim/centre.png,stim/congRight.png,right,0,14,001,2020-05-15_00h58.16.525,ANT,3.1.3,60,0.529999971,,,3,0,3,0,1,2,2,0,96,10,1,95
0.9,right,1,,,,,,,stim/both.png,stim/incongRight.png,right,0,14,001,2020-05-15_00h58.16.525,ANT,3.1.3,60,0.779999971,,,3,0,3,0,1,2,2,0,96,25,1,95
0.7,left,1,,,,,,,stim/lower.png,stim/congRight.png,left,180,14,001,2020-05-15_00h58.16.525,ANT,3.1.3,60,0.562999964,,,3,0,3,0,1,2,2,0,96,12,1,95
0.55,left,1,,,,,,,stim/blank.png,stim/incongRight.png,left,180,14,001,2020-05-15_00h58.16.525,ANT,3.1.3,60,0.897000074,,,3,0,3,0,1,2,2,0,96,31,1,95
0.7,right,1,,,,,,,stim/centre.png,stim/neutralLeft.png,right,180,14,001,2020-05-15_00h58.16.525,ANT,3.1.3,60,0.53000021,,,3,0,3,0,1,2,2,0,96,38,1,95
1.05,left,1,,,,,,,stim/blank.png,stim/neutralRight.png,left,180,14,001,2020-05-15_00h58.16.525,ANT,3.1.3,60,0.596999884,,,3,0,3,0,1,2,2,0,96,47,1,95
1.2,right,1,,,,,,,stim/upper.png,stim/incongRight.png,right,0,14,001,2020-05-15_00h58.16.525,ANT,3.1.3,60,0.796999931,,,3,0,3,0,1,2,2,0,96,24,1,95
0.95,left,1,,,,,,,stim/lower.png,stim/neutralRight.png,left,180,14,001,2020-05-15_00h58.16.525,ANT,3.1.3,60,0.546999931,,,3,0,3,0,1,2,2,0,96,44,1,95
0.9,right,1,,,,,,,stim/lower.png,stim/neutralLeft.png,right,180,14,001,2020-05-15_00h58.16.525,ANT,3.1.3,60,0.462999821,,,3,0,3,0,1,2,2,0,96,36,1,95
1.35,right,1,,,,,,,stim/lower.png,stim/incongLeft.png,right,180,14,001,2020-05-15_00h58.16.525,ANT,3.1.3,60,0.743000031,,,3,0,3,0,1,2,2,0,96,20,1,95
1.55,left,1,,,,,,,stim/blank.png,stim/congLeft.png,left,0,14,001,2020-05-15_00h58.16.525,ANT,3.1.3,60,0.563999891,,,3,0,3,0,1,2,2,0,96,3,1,95
1.15,left,1,,,,,,,stim/centre.png,stim/congLeft.png,left,0,14,001,2020-05-15_00h58.16.525,ANT,3.1.3,60,0.430999994,,,3,0,3,0,1,2,2,0,96,2,1,95
0.8,right,1,,,,,,,stim/blank.png,stim/incongLeft.png,right,180,14,001,2020-05-15_00h58.16.525,ANT,3.1.3,60,0.646999836,,,3,0,3,0,1,2,2,0,96,23,1,95
1.5,left,1,,,,,,,stim/upper.png,stim/incongLeft.png,left,0,14,001,2020-05-15_00h58.16.525,ANT,3.1.3,60,0.796999931,,,3,0,3,0,1,2,2,0,96,16,1,95
0.5,right,1,,,,,,,stim/both.png,stim/congRight.png,right,0,14,001,2020-05-15_00h58.16.525,ANT,3.1.3,60,0.580000162,,,3,0,3,0,1,2,2,0,96,9,1,95
0.95,left,1,,,,,,,stim/centre.png,stim/congRight.png,left,180,14,001,2020-05-15_00h58.16.525,ANT,3.1.3,60,0.497999907,,,3,0,3,0,1,2,2,0,96,14,1,95
0.95,left,1,,,,,,,stim/blank.png,stim/congRight.png,left,180,14,001,2020-05-15_00h58.16.525,ANT,3.1.3,60,0.480000019,,,3,0,3,0,1,2,2,0,96,15,1,95
0.65,right,1,,,,,,,stim/upper.png,stim/neutralRight.png,right,0,14,001,2020-05-15_00h58.16.525,ANT,3.1.3,60,0.630000114,,,3,0,3,0,1,2,2,0,96,40,1,95
0.85,right,1,,,,,,,stim/lower.png,stim/incongLeft.png,right,180,14,001,2020-05-15_00h58.16.525,ANT,3.1.3,60,0.863000154,,,3,0,3,0,1,2,2,0,96,20,1,95
0.5,right,1,,,,,,,stim/upper.png,stim/congRight.png,right,0,14,001,2020-05-15_00h58.16.525,ANT,3.1.3,60,0.497999907,,,3,0,3,0,1,2,2,0,96,8,1,95
1.4,right,1,,,,,,,stim/both.png,stim/incongLeft.png,right,180,14,001,2020-05-15_00h58.16.525,ANT,3.1.3,60,0.81400013,,,3,0,3,0,1,2,2,0,96,21,1,95
0.5,left,1,,,,,,,stim/centre.png,stim/congLeft.png,left,0,14,001,2020-05-15_00h58.16.525,ANT,3.1.3,60,0.713999987,,,3,0,3,0,1,2,2,0,96,2,1,95
0.9,left,1,,,,,,,stim/centre.png,stim/congRight.png,left,180,14,001,2020-05-15_00h58.16.525,ANT,3.1.3,60,0.531000137,,,3,0,3,0,1,2,2,0,96,14,1,95
1.35,right,1,,,,,,,stim/blank.png,stim/incongRight.png,right,0,14,001,2020-05-15_00h58.16.525,ANT,3.1.3,60,0.612999916,,,3,0,3,0,1,2,2,0,96,27,1,95
1.5,left,1,,,,,,,stim/lower.png,stim/neutralRight.png,left,180,14,001,2020-05-15_00h58.16.525,ANT,3.1.3,60,0.713000059,,,3,0,3,0,1,2,2,0,96,44,1,95
0.95,left,1,,,,,,,stim/blank.png,stim/congRight.png,left,180,14,001,2020-05-15_00h58.16.525,ANT,3.1.3,60,0.513999939,,,3,0,3,0,1,2,2,0,96,15,1,95
1.45,right,1,,,,,,,stim/blank.png,stim/congRight.png,right,0,14,001,2020-05-15_00h58.16.525,ANT,3.1.3,60,0.548000097,,,3,0,3,0,1,2,2,0,96,11,1,95
1.5,right,1,,,,,,,stim/blank.png,stim/neutralLeft.png,right,180,14,001,2020-05-15_00h58.16.525,ANT,3.1.3,60,0.56400013,,,3,0,3,0,1,2,2,0,96,39,1,95
0.65,right,1,,,,,,,stim/blank.png,stim/congLeft.png,right,180,14,001,2020-05-15_00h58.16.525,ANT,3.1.3,60,0.67599988,,,3,0,3,0,1,2,2,0,96,7,1,95
0.7,right,1,,,,,,,stim/centre.png,stim/incongLeft.png,right,180,14,001,2020-05-15_00h58.16.525,ANT,3.1.3,60,0.763000011,,,3,0,3,0,1,2,2,0,96,22,1,95
1.05,left,1,,,,,,,stim/blank.png,stim/neutralRight.png,left,180,14,001,2020-05-15_00h58.16.525,ANT,3.1.3,60,0.629999876,,,3,0,3,0,1,2,2,0,96,47,1,95
1.45,left,1,,,,,,,stim/blank.png,stim/incongRight.png,left,180,14,001,2020-05-15_00h58.16.525,ANT,3.1.3,60,0.980000019,,,3,0,3,0,1,2,2,0,96,31,1,95
0.9,right,1,,,,,,,stim/both.png,stim/neutralRight.png,right,0,14,001,2020-05-15_00h58.16.525,ANT,3.1.3,60,0.546999931,,,3,0,3,0,1,2,2,0,96,41,1,95
0.55,right,1,,,,,,,stim/centre.png,stim/congRight.png,right,0,14,001,2020-05-15_00h58.16.525,ANT,3.1.3,60,0.529999971,,,3,0,3,0,1,2,2,0,96,10,1,95
0.55,left,1,,,,,,,stim/centre.png,stim/neutralRight.png,left,180,14,001,2020-05-15_00h58.16.525,ANT,3.1.3,60,0.614000082,,,3,0,3,0,1,2,2,0,96,46,1,95
1.05,left,1,,,,,,,stim/both.png,stim/incongLeft.png,left,0,14,001,2020-05-15_00h58.16.525,ANT,3.1.3,60,0.996999979,,,3,0,3,0,1,2,2,0,96,17,1,95
1.2,right,1,,,,,,,stim/both.png,stim/incongRight.png,right,0,14,001,2020-05-15_00h58.16.525,ANT,3.1.3,60,0.714000225,,,3,0,3,0,1,2,2,0,96,25,1,95
0.65,right,1,,,,,,,stim/upper.png,stim/incongRight.png,right,0,14,001,2020-05-15_00h58.16.525,ANT,3.1.3,60,0.613999844,,,3,0,3,0,1,2,2,0,96,24,1,95
0.9,right,1,,,,,,,stim/blank.png,stim/neutralRight.png,right,0,14,001,2020-05-15_00h58.16.525,ANT,3.1.3,60,0.513999939,,,3,0,3,0,1,2,2,0,96,43,1,95
0.65,left,1,,,,,,,stim/upper.png,stim/incongLeft.png,left,0,14,001,2020-05-15_00h58.16.525,ANT,3.1.3,60,0.730000019,,,3,0,3,0,1,2,2,0,96,16,1,95
0.65,right,1,,,,,,,stim/blank.png,stim/incongLeft.png,right,180,14,001,2020-05-15_00h58.16.525,ANT,3.1.3,60,0.730999947,,,3,0,3,0,1,2,2,0,96,23,1,95
1,left,1,,,,,,,stim/centre.png,stim/neutralLeft.png,left,0,14,001,2020-05-15_00h58.16.525,ANT,3.1.3,60,0.596999884,,,3,0,3,0,1,2,2,0,96,34,1,95
1,right,1,,,,,,,stim/lower.png,stim/neutralLeft.png,right,180,14,001,2020-05-15_00h58.16.525,ANT,3.1.3,60,0.529999971,,,3,0,3,0,1,2,2,0,96,36,1,95
0.4,left,1,,,,,,,stim/both.png,stim/incongRight.png,left,180,14,001,2020-05-15_00h58.16.525,ANT,3.1.3,60,0.745000124,,,3,0,3,0,1,2,2,0,96,29,1,95
0.4,right,1,,,,,,,stim/centre.png,stim/congLeft.png,right,180,14,001,2020-05-15_00h58.16.525,ANT,3.1.3,60,0.548000097,,,3,0,3,0,1,2,2,0,96,6,1,95
0.55,left,1,,,,,,,stim/both.png,stim/neutralLeft.png,left,0,14,001,2020-05-15_00h58.16.525,ANT,3.1.3,60,0.594000101,,,3,0,3,0,1,2,2,0,96,33,1,95
1.2,right,1,,,,,,,stim/both.png,stim/congRight.png,right,0,14,001,2020-05-15_00h58.16.525,ANT,3.1.3,60,0.563999891,,,3,0,3,0,1,2,2,0,96,9,1,95
1.3,left,1,,,,,,,stim/lower.png,stim/congRight.png,left,180,14,001,2020-05-15_00h58.16.525,ANT,3.1.3,60,0.631000042,,,3,0,3,0,1,2,2,0,96,12,1,95
1.4,left,1,,,,,,,stim/upper.png,stim/congLeft.png,left,0,14,001,2020-05-15_00h58.16.525,ANT,3.1.3,60,0.478999853,,,3,0,3,0,1,2,2,0,96,0,1,95
1.55,right,1,,,,,,,stim/centre.png,stim/incongRight.png,right,0,14,001,2020-05-15_00h58.16.525,ANT,3.1.3,60,0.627000093,,,3,0,3,0,1,2,2,0,96,26,1,95
1.15,left,1,,,,,,,stim/blank.png,stim/congLeft.png,left,0,14,001,2020-05-15_00h58.16.525,ANT,3.1.3,60,0.497000217,,,3,0,3,0,1,2,2,0,96,3,1,95
1.5,left,1,,,,,,,stim/centre.png,stim/incongLeft.png,left,0,14,001,2020-05-15_00h58.16.525,ANT,3.1.3,60,0.796999931,,,3,0,3,0,1,2,2,0,96,18,1,95
1.4,left,1,,,,,,,stim/blank.png,stim/neutralLeft.png,left,0,14,001,2020-05-15_00h58.16.525,ANT,3.1.3,60,0.596999884,,,3,0,3,0,1,2,2,0,96,35,1,95
1.25,left,1,,,,,,,stim/lower.png,stim/incongRight.png,left,180,14,001,2020-05-15_00h58.16.525,ANT,3.1.3,60,0.913000107,,,3,0,3,0,1,2,2,0,96,28,1,95
1.4,left,1,,,,,,,stim/blank.png,stim/incongLeft.png,left,0,14,001,2020-05-15_00h58.16.525,ANT,3.1.3,60,0.644999981,,,3,0,3,0,1,2,2,0,96,19,1,95
0.4,left,1,,,,,,,stim/both.png,stim/congLeft.png,left,0,14,001,2020-05-15_00h58.16.525,ANT,3.1.3,60,0.497000217,,,3,0,3,0,1,2,2,0,96,1,1,95
1.5,right,1,,,,,,,stim/both.png,stim/neutralLeft.png,right,180,14,001,2020-05-15_00h58.16.525,ANT,3.1.3,60,0.630000114,,,3,0,3,0,1,2,2,0,96,37,1,95
0.9,right,1,,,,,,,stim/centre.png,stim/neutralRight.png,right,0,14,001,2020-05-15_00h58.16.525,ANT,3.1.3,60,0.630000114,,,3,0,3,0,1,2,2,0,96,42,1,95
1.05,left,1,,,,,,,stim/both.png,stim/neutralRight.png,left,180,14,001,2020-05-15_00h58.16.525,ANT,3.1.3,60,0.679000139,,,3,0,3,0,1,2,2,0,96,45,1,95
1.5,right,1,,,,,,,stim/centre.png,stim/neutralLeft.png,right,180,14,001,2020-05-15_00h58.16.525,ANT,3.1.3,60,0.529999971,,,3,0,3,0,1,2,2,0,96,38,1,95
0.8,right,1,,,,,,,stim/lower.png,stim/congLeft.png,right,180,14,001,2020-05-15_00h58.16.525,ANT,3.1.3,60,0.496999979,,,3,0,3,0,1,2,2,0,96,4,1,95
1.5,left,1,,,,,,,stim/both.png,stim/congRight.png,left,180,14,001,2020-05-15_00h58.16.525,ANT,3.1.3,60,0.513999939,,,3,0,3,0,1,2,2,0,96,13,1,95
1.15,left,1,,,,,,,stim/upper.png,stim/neutralLeft.png,left,0,14,001,2020-05-15_00h58.16.525,ANT,3.1.3,60,0.546999931,,,3,0,3,0,1,2,2,0,96,32,1,95
1,left,1,,,,,,,stim/centre.png,stim/incongRight.png,left,180,14,001,2020-05-15_00h58.16.525,ANT,3.1.3,60,0.945000172,,,3,0,3,0,1,2,2,0,96,30,1,95
1.4,right,1,,,,,,,stim/both.png,stim/congLeft.png,right,180,14,001,2020-05-15_00h58.16.525,ANT,3.1.3,60,0.532999992,,,3,0,3,0,1,2,2,0,96,5,1,95
,,,,,,,,,,,,,14,001,2020-05-15_00h58.16.525,ANT,3.1.3,60,,,,3,0,3,0,1,2,,,,,,
