fixDuration,resp.keys,resp.corr,resp.rt,pracLoop.thisRepN,pracLoop.thisTrialN,pracLoop.thisN,pracLoop.thisIndex,pracLoop.ran,pracLoop.order,cue,tar,corrAns,targOrientation,participant,session,date,expName,psychopyVersion,frameRate,instResp.keys,instResp.rt,blockLoop.thisRepN,blockLoop.thisTrialN,blockLoop.thisN,blockLoop.thisIndex,blockLoop.ran,blockLoop.order,mainLoop.thisRepN,mainLoop.thisTrialN,mainLoop.thisN,mainLoop.thisIndex,mainLoop.ran,mainLoop.order
0.95,left,1,1.64199996,1,0,24,3,1,23,stim/blank.png,stim/congLeft.png,left,0,7,001,2020-04-22_14h33.55.550,ANT,3.1.3,60,,,,,,,,,,,,,,
1,right,1,0.842999935,1,0,24,9,1,23,stim/both.png,stim/congRight.png,right,0,7,001,2020-04-22_14h33.55.550,ANT,3.1.3,60,,,,,,,,,,,,,,
0.9,left,1,0.760999918,1,0,24,0,1,23,stim/upper.png,stim/congLeft.png,left,0,7,001,2020-04-22_14h33.55.550,ANT,3.1.3,60,,,,,,,,,,,,,,
0.85,right,1,0.50999999,1,0,24,6,1,23,stim/centre.png,stim/congLeft.png,right,180,7,001,2020-04-22_14h33.55.550,ANT,3.1.3,60,,,,,,,,,,,,,,
0.8,left,1,0.542999983,1,0,24,1,1,23,stim/both.png,stim/congLeft.png,left,0,7,001,2020-04-22_14h33.55.550,ANT,3.1.3,60,,,,,,,,,,,,,,
0.85,right,1,0.50999999,1,0,24,4,1,23,stim/lower.png,stim/congLeft.png,right,180,7,001,2020-04-22_14h33.55.550,ANT,3.1.3,60,,,,,,,,,,,,,,
1.1,right,1,0.544000149,1,0,24,11,1,23,stim/blank.png,stim/congRight.png,right,0,7,001,2020-04-22_14h33.55.550,ANT,3.1.3,60,,,,,,,,,,,,,,
1.2,left,1,0.578000069,1,0,24,12,1,23,stim/lower.png,stim/congRight.png,left,180,7,001,2020-04-22_14h33.55.550,ANT,3.1.3,60,,,,,,,,,,,,,,
0.85,right,1,0.476999998,1,0,24,10,1,23,stim/centre.png,stim/congRight.png,right,0,7,001,2020-04-22_14h33.55.550,ANT,3.1.3,60,,,,,,,,,,,,,,
1.4,left,1,0.511000156,1,0,24,14,1,23,stim/centre.png,stim/congRight.png,left,180,7,001,2020-04-22_14h33.55.550,ANT,3.1.3,60,,,,,,,,,,,,,,
0.4,left,1,0.562000036,1,0,24,13,1,23,stim/both.png,stim/congRight.png,left,180,7,001,2020-04-22_14h33.55.550,ANT,3.1.3,60,,,,,,,,,,,,,,
0.5,right,1,0.460999966,1,0,24,8,1,23,stim/upper.png,stim/congRight.png,right,0,7,001,2020-04-22_14h33.55.550,ANT,3.1.3,60,,,,,,,,,,,,,,
0.9,left,1,0.428999901,1,0,24,15,1,23,stim/blank.png,stim/congRight.png,left,180,7,001,2020-04-22_14h33.55.550,ANT,3.1.3,60,,,,,,,,,,,,,,
0.7,left,1,0.430000067,1,0,24,2,1,23,stim/centre.png,stim/congLeft.png,left,0,7,001,2020-04-22_14h33.55.550,ANT,3.1.3,60,,,,,,,,,,,,,,
0.75,left,1,1.045000076,1,0,24,18,1,23,stim/centre.png,stim/incongLeft.png,left,0,7,001,2020-04-22_14h33.55.550,ANT,3.1.3,60,,,,,,,,,,,,,,
1.05,right,1,0.661999941,1,0,24,23,1,23,stim/blank.png,stim/incongLeft.png,right,180,7,001,2020-04-22_14h33.55.550,ANT,3.1.3,60,,,,,,,,,,,,,,
1.3,left,1,0.761999846,1,0,24,19,1,23,stim/blank.png,stim/incongLeft.png,left,0,7,001,2020-04-22_14h33.55.550,ANT,3.1.3,60,,,,,,,,,,,,,,
1.2,left,1,0.697000027,1,0,24,17,1,23,stim/both.png,stim/incongLeft.png,left,0,7,001,2020-04-22_14h33.55.550,ANT,3.1.3,60,,,,,,,,,,,,,,
0.65,right,1,0.664000034,1,0,24,21,1,23,stim/both.png,stim/incongLeft.png,right,180,7,001,2020-04-22_14h33.55.550,ANT,3.1.3,60,,,,,,,,,,,,,,
0.5,right,1,0.647000074,1,0,24,5,1,23,stim/both.png,stim/congLeft.png,right,180,7,001,2020-04-22_14h33.55.550,ANT,3.1.3,60,,,,,,,,,,,,,,
1.2,left,1,0.562999964,1,0,24,16,1,23,stim/upper.png,stim/incongLeft.png,left,0,7,001,2020-04-22_14h33.55.550,ANT,3.1.3,60,,,,,,,,,,,,,,
0.5,right,1,0.477999926,1,0,24,7,1,23,stim/blank.png,stim/congLeft.png,right,180,7,001,2020-04-22_14h33.55.550,ANT,3.1.3,60,,,,,,,,,,,,,,
1.2,right,1,0.946000099,1,0,24,20,1,23,stim/lower.png,stim/incongLeft.png,right,180,7,001,2020-04-22_14h33.55.550,ANT,3.1.3,60,,,,,,,,,,,,,,
1,right,1,0.654999971,1,0,24,22,1,23,stim/centre.png,stim/incongLeft.png,right,180,7,001,2020-04-22_14h33.55.550,ANT,3.1.3,60,,,,,,,,,,,,,,
0.5,right,1,0.646000147,,,,,,,stim/both.png,stim/neutralRight.png,right,0,7,001,2020-04-22_14h33.55.550,ANT,3.1.3,60,space,10.16899991,3,0,3,0,1,2,2,0,96,41,1,95
0.6,left,1,0.630000114,,,,,,,stim/centre.png,stim/congLeft.png,left,0,7,001,2020-04-22_14h33.55.550,ANT,3.1.3,60,,,3,0,3,0,1,2,2,0,96,2,1,95
1,left,1,0.613000154,,,,,,,stim/centre.png,stim/neutralRight.png,left,180,7,001,2020-04-22_14h33.55.550,ANT,3.1.3,60,,,3,0,3,0,1,2,2,0,96,46,1,95
1.05,right,1,0.712000132,,,,,,,stim/blank.png,stim/incongLeft.png,right,180,7,001,2020-04-22_14h33.55.550,ANT,3.1.3,60,,,3,0,3,0,1,2,2,0,96,23,1,95
1.5,left,1,0.412999868,,,,,,,stim/lower.png,stim/neutralRight.png,left,180,7,001,2020-04-22_14h33.55.550,ANT,3.1.3,60,,,3,0,3,0,1,2,2,0,96,44,1,95
0.85,right,1,0.396000147,,,,,,,stim/both.png,stim/neutralLeft.png,right,180,7,001,2020-04-22_14h33.55.550,ANT,3.1.3,60,,,3,0,3,0,1,2,2,0,96,37,1,95
0.85,left,1,0.397000074,,,,,,,stim/upper.png,stim/congLeft.png,left,0,7,001,2020-04-22_14h33.55.550,ANT,3.1.3,60,,,3,0,3,0,1,2,2,0,96,0,1,95
1.25,right,1,0.496999979,,,,,,,stim/lower.png,stim/incongLeft.png,right,180,7,001,2020-04-22_14h33.55.550,ANT,3.1.3,60,,,3,0,3,0,1,2,2,0,96,20,1,95
1.15,right,1,0.430000067,,,,,,,stim/centre.png,stim/congRight.png,right,0,7,001,2020-04-22_14h33.55.550,ANT,3.1.3,60,,,3,0,3,0,1,2,2,0,96,10,1,95
0.65,right,1,0.479999781,,,,,,,stim/both.png,stim/congRight.png,right,0,7,001,2020-04-22_14h33.55.550,ANT,3.1.3,60,,,3,0,3,0,1,2,2,0,96,9,1,95
1.25,left,1,0.446999788,,,,,,,stim/both.png,stim/congRight.png,left,180,7,001,2020-04-22_14h33.55.550,ANT,3.1.3,60,,,3,0,3,0,1,2,2,0,96,13,1,95
0.65,left,1,0.579999924,,,,,,,stim/both.png,stim/neutralRight.png,left,180,7,001,2020-04-22_14h33.55.550,ANT,3.1.3,60,,,3,0,3,0,1,2,2,0,96,45,1,95
1.3,left,1,0.595999956,,,,,,,stim/centre.png,stim/neutralLeft.png,left,0,7,001,2020-04-22_14h33.55.550,ANT,3.1.3,60,,,3,0,3,0,1,2,2,0,96,34,1,95
1.25,left,1,0.362999916,,,,,,,stim/lower.png,stim/congRight.png,left,180,7,001,2020-04-22_14h33.55.550,ANT,3.1.3,60,,,3,0,3,0,1,2,2,0,96,12,1,95
0.9,right,1,0.379999876,,,,,,,stim/lower.png,stim/congLeft.png,right,180,7,001,2020-04-22_14h33.55.550,ANT,3.1.3,60,,,3,0,3,0,1,2,2,0,96,4,1,95
1.3,right,1,0.628000021,,,,,,,stim/both.png,stim/incongRight.png,right,0,7,001,2020-04-22_14h33.55.550,ANT,3.1.3,60,,,3,0,3,0,1,2,2,0,96,25,1,95
0.55,left,1,0.479000092,,,,,,,stim/both.png,stim/neutralLeft.png,left,0,7,001,2020-04-22_14h33.55.550,ANT,3.1.3,60,,,3,0,3,0,1,2,2,0,96,33,1,95
1.2,left,1,0.478000164,,,,,,,stim/centre.png,stim/congRight.png,left,180,7,001,2020-04-22_14h33.55.550,ANT,3.1.3,60,,,3,0,3,0,1,2,2,0,96,14,1,95
0.6,left,1,0.628999949,,,,,,,stim/blank.png,stim/congLeft.png,left,0,7,001,2020-04-22_14h33.55.550,ANT,3.1.3,60,,,3,0,3,0,1,2,2,0,96,3,1,95
0.4,right,1,0.529000044,,,,,,,stim/upper.png,stim/congRight.png,right,0,7,001,2020-04-22_14h33.55.550,ANT,3.1.3,60,,,3,0,3,0,1,2,2,0,96,8,1,95
1.35,right,1,0.546999931,,,,,,,stim/both.png,stim/congLeft.png,right,180,7,001,2020-04-22_14h33.55.550,ANT,3.1.3,60,,,3,0,3,0,1,2,2,0,96,5,1,95
1.05,right,1,0.412999868,,,,,,,stim/blank.png,stim/congRight.png,right,0,7,001,2020-04-22_14h33.55.550,ANT,3.1.3,60,,,3,0,3,0,1,2,2,0,96,11,1,95
0.9,left,1,0.529999971,,,,,,,stim/blank.png,stim/incongLeft.png,left,0,7,001,2020-04-22_14h33.55.550,ANT,3.1.3,60,,,3,0,3,0,1,2,2,0,96,19,1,95
0.8,left,1,0.663000107,,,,,,,stim/lower.png,stim/incongRight.png,left,180,7,001,2020-04-22_14h33.55.550,ANT,3.1.3,60,,,3,0,3,0,1,2,2,0,96,28,1,95
0.6,left,1,0.496000051,,,,,,,stim/upper.png,stim/neutralLeft.png,left,0,7,001,2020-04-22_14h33.55.550,ANT,3.1.3,60,,,3,0,3,0,1,2,2,0,96,32,1,95
1.25,right,1,0.697000027,,,,,,,stim/blank.png,stim/incongRight.png,right,0,7,001,2020-04-22_14h33.55.550,ANT,3.1.3,60,,,3,0,3,0,1,2,2,0,96,27,1,95
1,right,1,0.845999956,,,,,,,stim/centre.png,stim/incongLeft.png,right,180,7,001,2020-04-22_14h33.55.550,ANT,3.1.3,60,,,3,0,3,0,1,2,2,0,96,22,1,95
0.7,right,1,0.597000122,,,,,,,stim/blank.png,stim/neutralLeft.png,right,180,7,001,2020-04-22_14h33.55.550,ANT,3.1.3,60,,,3,0,3,0,1,2,2,0,96,39,1,95
0.85,right,1,0.680000067,,,,,,,stim/both.png,stim/incongLeft.png,right,180,7,001,2020-04-22_14h33.55.550,ANT,3.1.3,60,,,3,0,3,0,1,2,2,0,96,21,1,95
1.5,left,1,0.480999947,,,,,,,stim/blank.png,stim/congRight.png,left,180,7,001,2020-04-22_14h33.55.550,ANT,3.1.3,60,,,3,0,3,0,1,2,2,0,96,15,1,95
0.8,right,1,0.563999891,,,,,,,stim/upper.png,stim/incongRight.png,right,0,7,001,2020-04-22_14h33.55.550,ANT,3.1.3,60,,,3,0,3,0,1,2,2,0,96,24,1,95
1.45,left,1,0.562999964,,,,,,,stim/blank.png,stim/incongRight.png,left,180,7,001,2020-04-22_14h33.55.550,ANT,3.1.3,60,,,3,0,3,0,1,2,2,0,96,31,1,95
0.85,left,1,0.612999916,,,,,,,stim/both.png,stim/congLeft.png,left,0,7,001,2020-04-22_14h33.55.550,ANT,3.1.3,60,,,3,0,3,0,1,2,2,0,96,1,1,95
1.45,right,1,0.462000132,,,,,,,stim/upper.png,stim/neutralRight.png,right,0,7,001,2020-04-22_14h33.55.550,ANT,3.1.3,60,,,3,0,3,0,1,2,2,0,96,40,1,95
0.95,left,1,0.562000036,,,,,,,stim/both.png,stim/incongLeft.png,left,0,7,001,2020-04-22_14h33.55.550,ANT,3.1.3,60,,,3,0,3,0,1,2,2,0,96,17,1,95
0.75,right,1,0.513999939,,,,,,,stim/blank.png,stim/congLeft.png,right,180,7,001,2020-04-22_14h33.55.550,ANT,3.1.3,60,,,3,0,3,0,1,2,2,0,96,7,1,95
0.45,right,1,0.463000059,,,,,,,stim/lower.png,stim/neutralLeft.png,right,180,7,001,2020-04-22_14h33.55.550,ANT,3.1.3,60,,,3,0,3,0,1,2,2,0,96,36,1,95
0.65,right,1,0.414000034,,,,,,,stim/centre.png,stim/neutralLeft.png,right,180,7,001,2020-04-22_14h33.55.550,ANT,3.1.3,60,,,3,0,3,0,1,2,2,0,96,38,1,95
0.5,right,1,0.397000074,,,,,,,stim/centre.png,stim/congLeft.png,right,180,7,001,2020-04-22_14h33.55.550,ANT,3.1.3,60,,,3,0,3,0,1,2,2,0,96,6,1,95
1.5,right,1,0.513000011,,,,,,,stim/blank.png,stim/neutralRight.png,right,0,7,001,2020-04-22_14h33.55.550,ANT,3.1.3,60,,,3,0,3,0,1,2,2,0,96,43,1,95
1.35,right,1,0.546000004,,,,,,,stim/centre.png,stim/neutralRight.png,right,0,7,001,2020-04-22_14h33.55.550,ANT,3.1.3,60,,,3,0,3,0,1,2,2,0,96,42,1,95
0.45,left,1,0.612999916,,,,,,,stim/upper.png,stim/incongLeft.png,left,0,7,001,2020-04-22_14h33.55.550,ANT,3.1.3,60,,,3,0,3,0,1,2,2,0,96,16,1,95
0.55,left,1,0.513999939,,,,,,,stim/centre.png,stim/incongLeft.png,left,0,7,001,2020-04-22_14h33.55.550,ANT,3.1.3,60,,,3,0,3,0,1,2,2,0,96,18,1,95
0.9,right,1,0.513000011,,,,,,,stim/centre.png,stim/incongRight.png,right,0,7,001,2020-04-22_14h33.55.550,ANT,3.1.3,60,,,3,0,3,0,1,2,2,0,96,26,1,95
1.45,left,1,0.631000042,,,,,,,stim/blank.png,stim/neutralLeft.png,left,0,7,001,2020-04-22_14h33.55.550,ANT,3.1.3,60,,,3,0,3,0,1,2,2,0,96,35,1,95
1.1,left,1,0.962999821,,,,,,,stim/centre.png,stim/incongRight.png,left,180,7,001,2020-04-22_14h33.55.550,ANT,3.1.3,60,,,3,0,3,0,1,2,2,0,96,30,1,95
1.25,left,1,0.546000004,,,,,,,stim/blank.png,stim/neutralRight.png,left,180,7,001,2020-04-22_14h33.55.550,ANT,3.1.3,60,,,3,0,3,0,1,2,2,0,96,47,1,95
1.15,left,1,0.612999916,,,,,,,stim/both.png,stim/incongRight.png,left,180,7,001,2020-04-22_14h33.55.550,ANT,3.1.3,60,,,3,0,3,0,1,2,2,0,96,29,1,95
1.05,right,1,0.546999931,,,,,,,stim/blank.png,stim/incongLeft.png,right,180,7,001,2020-04-22_14h33.55.550,ANT,3.1.3,60,,,3,0,3,0,1,2,2,0,96,23,1,95
0.85,left,1,0.579999924,,,,,,,stim/blank.png,stim/congRight.png,left,180,7,001,2020-04-22_14h33.55.550,ANT,3.1.3,60,,,3,0,3,0,1,2,2,0,96,15,1,95
0.65,left,1,0.513000011,,,,,,,stim/centre.png,stim/neutralLeft.png,left,0,7,001,2020-04-22_14h33.55.550,ANT,3.1.3,60,,,3,0,3,0,1,2,2,0,96,34,1,95
0.4,left,1,0.397000074,,,,,,,stim/both.png,stim/congLeft.png,left,0,7,001,2020-04-22_14h33.55.550,ANT,3.1.3,60,,,3,0,3,0,1,2,2,0,96,1,1,95
0.9,left,1,0.447000027,,,,,,,stim/both.png,stim/neutralRight.png,left,180,7,001,2020-04-22_14h33.55.550,ANT,3.1.3,60,,,3,0,3,0,1,2,2,0,96,45,1,95
1,left,1,0.697000027,,,,,,,stim/centre.png,stim/incongRight.png,left,180,7,001,2020-04-22_14h33.55.550,ANT,3.1.3,60,,,3,0,3,0,1,2,2,0,96,30,1,95
0.6,left,1,0.595999956,,,,,,,stim/blank.png,stim/incongLeft.png,left,0,7,001,2020-04-22_14h33.55.550,ANT,3.1.3,60,,,3,0,3,0,1,2,2,0,96,19,1,95
0.8,right,1,0.396999836,,,,,,,stim/blank.png,stim/congRight.png,right,0,7,001,2020-04-22_14h33.55.550,ANT,3.1.3,60,,,3,0,3,0,1,2,2,0,96,11,1,95
0.5,left,1,0.480999947,,,,,,,stim/lower.png,stim/congRight.png,left,180,7,001,2020-04-22_14h33.55.550,ANT,3.1.3,60,,,3,0,3,0,1,2,2,0,96,12,1,95
0.45,left,1,0.763999939,,,,,,,stim/both.png,stim/incongLeft.png,left,0,7,001,2020-04-22_14h33.55.550,ANT,3.1.3,60,,,3,0,3,0,1,2,2,0,96,17,1,95
1.55,right,1,0.580000162,,,,,,,stim/both.png,stim/incongRight.png,right,0,7,001,2020-04-22_14h33.55.550,ANT,3.1.3,60,,,3,0,3,0,1,2,2,0,96,25,1,95
0.9,left,1,0.414000034,,,,,,,stim/blank.png,stim/neutralLeft.png,left,0,7,001,2020-04-22_14h33.55.550,ANT,3.1.3,60,,,3,0,3,0,1,2,2,0,96,35,1,95
1.2,left,1,0.395999908,,,,,,,stim/both.png,stim/neutralLeft.png,left,0,7,001,2020-04-22_14h33.55.550,ANT,3.1.3,60,,,3,0,3,0,1,2,2,0,96,33,1,95
1.1,right,1,0.396999836,,,,,,,stim/centre.png,stim/congRight.png,right,0,7,001,2020-04-22_14h33.55.550,ANT,3.1.3,60,,,3,0,3,0,1,2,2,0,96,10,1,95
0.55,right,1,0.980000019,,,,,,,stim/lower.png,stim/incongLeft.png,right,180,7,001,2020-04-22_14h33.55.550,ANT,3.1.3,60,,,3,0,3,0,1,2,2,0,96,20,1,95
1.25,right,1,0.394999981,,,,,,,stim/lower.png,stim/congLeft.png,right,180,7,001,2020-04-22_14h33.55.550,ANT,3.1.3,60,,,3,0,3,0,1,2,2,0,96,4,1,95
1.55,right,1,0.479000092,,,,,,,stim/both.png,stim/neutralRight.png,right,0,7,001,2020-04-22_14h33.55.550,ANT,3.1.3,60,,,3,0,3,0,1,2,2,0,96,41,1,95
1.15,left,1,0.430000067,,,,,,,stim/upper.png,stim/congLeft.png,left,0,7,001,2020-04-22_14h33.55.550,ANT,3.1.3,60,,,3,0,3,0,1,2,2,0,96,0,1,95
1.4,right,1,0.812999964,,,,,,,stim/centre.png,stim/incongLeft.png,right,180,7,001,2020-04-22_14h33.55.550,ANT,3.1.3,60,,,3,0,3,0,1,2,2,0,96,22,1,95
1.2,right,1,0.563000202,,,,,,,stim/blank.png,stim/neutralRight.png,right,0,7,001,2020-04-22_14h33.55.550,ANT,3.1.3,60,,,3,0,3,0,1,2,2,0,96,43,1,95
0.8,left,1,0.363999844,,,,,,,stim/both.png,stim/congRight.png,left,180,7,001,2020-04-22_14h33.55.550,ANT,3.1.3,60,,,3,0,3,0,1,2,2,0,96,13,1,95
1.5,left,1,0.630000114,,,,,,,stim/blank.png,stim/incongRight.png,left,180,7,001,2020-04-22_14h33.55.550,ANT,3.1.3,60,,,3,0,3,0,1,2,2,0,96,31,1,95
0.5,right,0,0.361999989,,,,,,,stim/centre.png,stim/incongLeft.png,left,0,7,001,2020-04-22_14h33.55.550,ANT,3.1.3,60,,,3,0,3,0,1,2,2,0,96,18,1,95
1,left,1,0.54700017,,,,,,,stim/centre.png,stim/congRight.png,left,180,7,001,2020-04-22_14h33.55.550,ANT,3.1.3,60,,,3,0,3,0,1,2,2,0,96,14,1,95
0.6,left,1,0.697000027,,,,,,,stim/both.png,stim/incongRight.png,left,180,7,001,2020-04-22_14h33.55.550,ANT,3.1.3,60,,,3,0,3,0,1,2,2,0,96,29,1,95
0.85,right,1,0.445999861,,,,,,,stim/blank.png,stim/congLeft.png,right,180,7,001,2020-04-22_14h33.55.550,ANT,3.1.3,60,,,3,0,3,0,1,2,2,0,96,7,1,95
1.05,left,1,0.562000036,,,,,,,stim/upper.png,stim/incongLeft.png,left,0,7,001,2020-04-22_14h33.55.550,ANT,3.1.3,60,,,3,0,3,0,1,2,2,0,96,16,1,95
0.9,right,1,0.596999884,,,,,,,stim/centre.png,stim/incongRight.png,right,0,7,001,2020-04-22_14h33.55.550,ANT,3.1.3,60,,,3,0,3,0,1,2,2,0,96,26,1,95
1.45,right,1,0.413000107,,,,,,,stim/centre.png,stim/congLeft.png,right,180,7,001,2020-04-22_14h33.55.550,ANT,3.1.3,60,,,3,0,3,0,1,2,2,0,96,6,1,95
0.4,right,1,0.462999821,,,,,,,stim/centre.png,stim/neutralLeft.png,right,180,7,001,2020-04-22_14h33.55.550,ANT,3.1.3,60,,,3,0,3,0,1,2,2,0,96,38,1,95
0.55,left,1,0.413999796,,,,,,,stim/blank.png,stim/neutralRight.png,left,180,7,001,2020-04-22_14h33.55.550,ANT,3.1.3,60,,,3,0,3,0,1,2,2,0,96,47,1,95
0.45,right,1,0.412000179,,,,,,,stim/both.png,stim/neutralLeft.png,right,180,7,001,2020-04-22_14h33.55.550,ANT,3.1.3,60,,,3,0,3,0,1,2,2,0,96,37,1,95
0.75,right,1,0.478999853,,,,,,,stim/both.png,stim/congLeft.png,right,180,7,001,2020-04-22_14h33.55.550,ANT,3.1.3,60,,,3,0,3,0,1,2,2,0,96,5,1,95
0.9,right,1,0.763999939,,,,,,,stim/blank.png,stim/incongRight.png,right,0,7,001,2020-04-22_14h33.55.550,ANT,3.1.3,60,,,3,0,3,0,1,2,2,0,96,27,1,95
0.7,right,1,0.680000067,,,,,,,stim/both.png,stim/incongLeft.png,right,180,7,001,2020-04-22_14h33.55.550,ANT,3.1.3,60,,,3,0,3,0,1,2,2,0,96,21,1,95
1.55,right,1,0.446000099,,,,,,,stim/blank.png,stim/neutralLeft.png,right,180,7,001,2020-04-22_14h33.55.550,ANT,3.1.3,60,,,3,0,3,0,1,2,2,0,96,39,1,95
1,right,1,0.430000067,,,,,,,stim/centre.png,stim/neutralRight.png,right,0,7,001,2020-04-22_14h33.55.550,ANT,3.1.3,60,,,3,0,3,0,1,2,2,0,96,42,1,95
0.45,right,1,0.79700017,,,,,,,stim/upper.png,stim/incongRight.png,right,0,7,001,2020-04-22_14h33.55.550,ANT,3.1.3,60,,,3,0,3,0,1,2,2,0,96,24,1,95
1.05,left,1,0.447000027,,,,,,,stim/lower.png,stim/neutralRight.png,left,180,7,001,2020-04-22_14h33.55.550,ANT,3.1.3,60,,,3,0,3,0,1,2,2,0,96,44,1,95
1.45,left,1,0.430999994,,,,,,,stim/centre.png,stim/congLeft.png,left,0,7,001,2020-04-22_14h33.55.550,ANT,3.1.3,60,,,3,0,3,0,1,2,2,0,96,2,1,95
1.1,left,1,0.611999989,,,,,,,stim/lower.png,stim/incongRight.png,left,180,7,001,2020-04-22_14h33.55.550,ANT,3.1.3,60,,,3,0,3,0,1,2,2,0,96,28,1,95
0.85,right,1,0.462999821,,,,,,,stim/upper.png,stim/neutralRight.png,right,0,7,001,2020-04-22_14h33.55.550,ANT,3.1.3,60,,,3,0,3,0,1,2,2,0,96,40,1,95
1.5,right,1,0.463000059,,,,,,,stim/lower.png,stim/neutralLeft.png,right,180,7,001,2020-04-22_14h33.55.550,ANT,3.1.3,60,,,3,0,3,0,1,2,2,0,96,36,1,95
0.6,right,1,0.430999994,,,,,,,stim/both.png,stim/congRight.png,right,0,7,001,2020-04-22_14h33.55.550,ANT,3.1.3,60,,,3,0,3,0,1,2,2,0,96,9,1,95
1.55,left,1,0.429999828,,,,,,,stim/centre.png,stim/neutralRight.png,left,180,7,001,2020-04-22_14h33.55.550,ANT,3.1.3,60,,,3,0,3,0,1,2,2,0,96,46,1,95
0.5,left,1,0.413000107,,,,,,,stim/upper.png,stim/neutralLeft.png,left,0,7,001,2020-04-22_14h33.55.550,ANT,3.1.3,60,,,3,0,3,0,1,2,2,0,96,32,1,95
0.7,right,1,0.463999987,,,,,,,stim/upper.png,stim/congRight.png,right,0,7,001,2020-04-22_14h33.55.550,ANT,3.1.3,60,,,3,0,3,0,1,2,2,0,96,8,1,95
1.1,left,1,0.546999931,,,,,,,stim/blank.png,stim/congLeft.png,left,0,7,001,2020-04-22_14h33.55.550,ANT,3.1.3,60,,,3,0,3,0,1,2,2,0,96,3,1,95
,,,,,,,,,,,,,,7,001,2020-04-22_14h33.55.550,ANT,3.1.3,60,,,3,0,3,0,1,2,,,,,,
1.15,right,1,0.513999939,,,,,,,stim/centre.png,stim/neutralRight.png,right,0,7,001,2020-04-22_14h33.55.550,ANT,3.1.3,60,,,3,0,3,0,1,2,2,0,96,42,1,95
1.45,left,1,0.429999828,,,,,,,stim/both.png,stim/congLeft.png,left,0,7,001,2020-04-22_14h33.55.550,ANT,3.1.3,60,,,3,0,3,0,1,2,2,0,96,1,1,95
1.05,right,0,0.397000074,,,,,,,stim/blank.png,stim/incongRight.png,left,180,7,001,2020-04-22_14h33.55.550,ANT,3.1.3,60,,,3,0,3,0,1,2,2,0,96,31,1,95
0.75,left,1,0.430000067,,,,,,,stim/upper.png,stim/neutralLeft.png,left,0,7,001,2020-04-22_14h33.55.550,ANT,3.1.3,60,,,3,0,3,0,1,2,2,0,96,32,1,95
1.5,left,1,0.578999996,,,,,,,stim/upper.png,stim/incongLeft.png,left,0,7,001,2020-04-22_14h33.55.550,ANT,3.1.3,60,,,3,0,3,0,1,2,2,0,96,16,1,95
0.85,right,1,0.480000019,,,,,,,stim/both.png,stim/congRight.png,right,0,7,001,2020-04-22_14h33.55.550,ANT,3.1.3,60,,,3,0,3,0,1,2,2,0,96,9,1,95
1.2,right,1,0.920000076,,,,,,,stim/both.png,stim/incongLeft.png,right,180,7,001,2020-04-22_14h33.55.550,ANT,3.1.3,60,,,3,0,3,0,1,2,2,0,96,21,1,95
1.5,right,1,0.580000162,,,,,,,stim/blank.png,stim/neutralLeft.png,right,180,7,001,2020-04-22_14h33.55.550,ANT,3.1.3,60,,,3,0,3,0,1,2,2,0,96,39,1,95
1.3,right,1,0.730000019,,,,,,,stim/blank.png,stim/neutralRight.png,right,0,7,001,2020-04-22_14h33.55.550,ANT,3.1.3,60,,,3,0,3,0,1,2,2,0,96,43,1,95
0.8,left,1,0.496999979,,,,,,,stim/lower.png,stim/neutralRight.png,left,180,7,001,2020-04-22_14h33.55.550,ANT,3.1.3,60,,,3,0,3,0,1,2,2,0,96,44,1,95
1.4,left,1,0.463000059,,,,,,,stim/upper.png,stim/congLeft.png,left,0,7,001,2020-04-22_14h33.55.550,ANT,3.1.3,60,,,3,0,3,0,1,2,2,0,96,0,1,95
0.6,right,1,0.532000065,,,,,,,stim/upper.png,stim/congRight.png,right,0,7,001,2020-04-22_14h33.55.550,ANT,3.1.3,60,,,3,0,3,0,1,2,2,0,96,8,1,95
0.75,right,1,0.412999868,,,,,,,stim/centre.png,stim/congLeft.png,right,180,7,001,2020-04-22_14h33.55.550,ANT,3.1.3,60,,,3,0,3,0,1,2,2,0,96,6,1,95
0.5,right,1,0.446999788,,,,,,,stim/lower.png,stim/neutralLeft.png,right,180,7,001,2020-04-22_14h33.55.550,ANT,3.1.3,60,,,3,0,3,0,1,2,2,0,96,36,1,95
1.35,left,1,0.611999989,,,,,,,stim/both.png,stim/incongRight.png,left,180,7,001,2020-04-22_14h33.55.550,ANT,3.1.3,60,,,3,0,3,0,1,2,2,0,96,29,1,95
0.85,left,1,0.595999956,,,,,,,stim/lower.png,stim/incongRight.png,left,180,7,001,2020-04-22_14h33.55.550,ANT,3.1.3,60,,,3,0,3,0,1,2,2,0,96,28,1,95
1.05,left,1,0.463999987,,,,,,,stim/both.png,stim/neutralLeft.png,left,0,7,001,2020-04-22_14h33.55.550,ANT,3.1.3,60,,,3,0,3,0,1,2,2,0,96,33,1,95
0.85,right,1,0.846999884,,,,,,,stim/lower.png,stim/incongLeft.png,right,180,7,001,2020-04-22_14h33.55.550,ANT,3.1.3,60,,,3,0,3,0,1,2,2,0,96,20,1,95
0.8,left,1,0.54700017,,,,,,,stim/centre.png,stim/incongRight.png,left,180,7,001,2020-04-22_14h33.55.550,ANT,3.1.3,60,,,3,0,3,0,1,2,2,0,96,30,1,95
0.45,left,1,0.529000044,,,,,,,stim/blank.png,stim/congLeft.png,left,0,7,001,2020-04-22_14h33.55.550,ANT,3.1.3,60,,,3,0,3,0,1,2,2,0,96,3,1,95
1.15,left,1,0.414000034,,,,,,,stim/centre.png,stim/congRight.png,left,180,7,001,2020-04-22_14h33.55.550,ANT,3.1.3,60,,,3,0,3,0,1,2,2,0,96,14,1,95
0.65,left,1,0.430000067,,,,,,,stim/centre.png,stim/neutralRight.png,left,180,7,001,2020-04-22_14h33.55.550,ANT,3.1.3,60,,,3,0,3,0,1,2,2,0,96,46,1,95
0.9,right,1,0.445999861,,,,,,,stim/blank.png,stim/congRight.png,right,0,7,001,2020-04-22_14h33.55.550,ANT,3.1.3,60,,,3,0,3,0,1,2,2,0,96,11,1,95
1.35,right,1,0.562999964,,,,,,,stim/upper.png,stim/neutralRight.png,right,0,7,001,2020-04-22_14h33.55.550,ANT,3.1.3,60,,,3,0,3,0,1,2,2,0,96,40,1,95
0.8,left,1,0.630000114,,,,,,,stim/both.png,stim/incongLeft.png,left,0,7,001,2020-04-22_14h33.55.550,ANT,3.1.3,60,,,3,0,3,0,1,2,2,0,96,17,1,95
0.75,left,1,0.845999956,,,,,,,stim/blank.png,stim/incongLeft.png,left,0,7,001,2020-04-22_14h33.55.550,ANT,3.1.3,60,,,3,0,3,0,1,2,2,0,96,19,1,95
1.4,right,1,0.496999979,,,,,,,stim/both.png,stim/neutralLeft.png,right,180,7,001,2020-04-22_14h33.55.550,ANT,3.1.3,60,,,3,0,3,0,1,2,2,0,96,37,1,95
1.05,right,1,0.612999916,,,,,,,stim/blank.png,stim/congLeft.png,right,180,7,001,2020-04-22_14h33.55.550,ANT,3.1.3,60,,,3,0,3,0,1,2,2,0,96,7,1,95
0.5,left,1,0.380000114,,,,,,,stim/both.png,stim/neutralRight.png,left,180,7,001,2020-04-22_14h33.55.550,ANT,3.1.3,60,,,3,0,3,0,1,2,2,0,96,45,1,95
0.55,left,1,0.447000027,,,,,,,stim/centre.png,stim/congLeft.png,left,0,7,001,2020-04-22_14h33.55.550,ANT,3.1.3,60,,,3,0,3,0,1,2,2,0,96,2,1,95
1.2,left,1,0.429999828,,,,,,,stim/blank.png,stim/neutralLeft.png,left,0,7,001,2020-04-22_14h33.55.550,ANT,3.1.3,60,,,3,0,3,0,1,2,2,0,96,35,1,95
0.55,right,1,0.413999796,,,,,,,stim/lower.png,stim/congLeft.png,right,180,7,001,2020-04-22_14h33.55.550,ANT,3.1.3,60,,,3,0,3,0,1,2,2,0,96,4,1,95
0.4,left,1,0.664000034,,,,,,,stim/centre.png,stim/incongLeft.png,left,0,7,001,2020-04-22_14h33.55.550,ANT,3.1.3,60,,,3,0,3,0,1,2,2,0,96,18,1,95
0.95,right,1,0.646999836,,,,,,,stim/centre.png,stim/incongLeft.png,right,180,7,001,2020-04-22_14h33.55.550,ANT,3.1.3,60,,,3,0,3,0,1,2,2,0,96,22,1,95
1.1,left,1,0.362999916,,,,,,,stim/lower.png,stim/congRight.png,left,180,7,001,2020-04-22_14h33.55.550,ANT,3.1.3,60,,,3,0,3,0,1,2,2,0,96,12,1,95
1.45,left,1,0.413999796,,,,,,,stim/both.png,stim/congRight.png,left,180,7,001,2020-04-22_14h33.55.550,ANT,3.1.3,60,,,3,0,3,0,1,2,2,0,96,13,1,95
0.7,right,1,0.529000044,,,,,,,stim/centre.png,stim/incongRight.png,right,0,7,001,2020-04-22_14h33.55.550,ANT,3.1.3,60,,,3,0,3,0,1,2,2,0,96,26,1,95
0.75,right,1,0.628999949,,,,,,,stim/both.png,stim/incongRight.png,right,0,7,001,2020-04-22_14h33.55.550,ANT,3.1.3,60,,,3,0,3,0,1,2,2,0,96,25,1,95
0.65,right,1,0.596999884,,,,,,,stim/blank.png,stim/incongRight.png,right,0,7,001,2020-04-22_14h33.55.550,ANT,3.1.3,60,,,3,0,3,0,1,2,2,0,96,27,1,95
0.6,right,1,0.680000067,,,,,,,stim/blank.png,stim/incongLeft.png,right,180,7,001,2020-04-22_14h33.55.550,ANT,3.1.3,60,,,3,0,3,0,1,2,2,0,96,23,1,95
0.6,right,1,0.561999798,,,,,,,stim/upper.png,stim/incongRight.png,right,0,7,001,2020-04-22_14h33.55.550,ANT,3.1.3,60,,,3,0,3,0,1,2,2,0,96,24,1,95
0.6,left,1,0.496000051,,,,,,,stim/blank.png,stim/neutralRight.png,left,180,7,001,2020-04-22_14h33.55.550,ANT,3.1.3,60,,,3,0,3,0,1,2,2,0,96,47,1,95
1.15,right,1,0.462999821,,,,,,,stim/centre.png,stim/congRight.png,right,0,7,001,2020-04-22_14h33.55.550,ANT,3.1.3,60,,,3,0,3,0,1,2,2,0,96,10,1,95
0.8,right,1,0.428999901,,,,,,,stim/centre.png,stim/neutralLeft.png,right,180,7,001,2020-04-22_14h33.55.550,ANT,3.1.3,60,,,3,0,3,0,1,2,2,0,96,38,1,95
1.55,right,1,0.479999781,,,,,,,stim/both.png,stim/neutralRight.png,right,0,7,001,2020-04-22_14h33.55.550,ANT,3.1.3,60,,,3,0,3,0,1,2,2,0,96,41,1,95
0.55,left,1,0.446999788,,,,,,,stim/centre.png,stim/neutralLeft.png,left,0,7,001,2020-04-22_14h33.55.550,ANT,3.1.3,60,,,3,0,3,0,1,2,2,0,96,34,1,95
1.4,left,1,0.414000034,,,,,,,stim/blank.png,stim/congRight.png,left,180,7,001,2020-04-22_14h33.55.550,ANT,3.1.3,60,,,3,0,3,0,1,2,2,0,96,15,1,95
1.1,right,1,0.380000114,,,,,,,stim/both.png,stim/congLeft.png,right,180,7,001,2020-04-22_14h33.55.550,ANT,3.1.3,60,,,3,0,3,0,1,2,2,0,96,5,1,95
1.55,,0,,,,,,,,stim/upper.png,stim/congRight.png,right,0,7,001,2020-04-22_14h33.55.550,ANT,3.1.3,60,,,3,0,3,0,1,2,2,0,96,8,1,95
1.3,left,1,0.529999971,,,,,,,stim/blank.png,stim/congRight.png,left,180,7,001,2020-04-22_14h33.55.550,ANT,3.1.3,60,,,3,0,3,0,1,2,2,0,96,15,1,95
1.4,right,1,0.563999891,,,,,,,stim/centre.png,stim/incongLeft.png,right,180,7,001,2020-04-22_14h33.55.550,ANT,3.1.3,60,,,3,0,3,0,1,2,2,0,96,22,1,95
0.65,left,1,0.529999971,,,,,,,stim/centre.png,stim/neutralRight.png,left,180,7,001,2020-04-22_14h33.55.550,ANT,3.1.3,60,,,3,0,3,0,1,2,2,0,96,46,1,95
0.5,left,1,0.413999796,,,,,,,stim/blank.png,stim/neutralRight.png,left,180,7,001,2020-04-22_14h33.55.550,ANT,3.1.3,60,,,3,0,3,0,1,2,2,0,96,47,1,95
0.8,left,1,0.479999781,,,,,,,stim/blank.png,stim/neutralLeft.png,left,0,7,001,2020-04-22_14h33.55.550,ANT,3.1.3,60,,,3,0,3,0,1,2,2,0,96,35,1,95
1,left,1,0.430000067,,,,,,,stim/upper.png,stim/congLeft.png,left,0,7,001,2020-04-22_14h33.55.550,ANT,3.1.3,60,,,3,0,3,0,1,2,2,0,96,0,1,95
1.45,left,1,0.414000034,,,,,,,stim/both.png,stim/congRight.png,left,180,7,001,2020-04-22_14h33.55.550,ANT,3.1.3,60,,,3,0,3,0,1,2,2,0,96,13,1,95
1.15,right,1,0.613000154,,,,,,,stim/lower.png,stim/neutralLeft.png,right,180,7,001,2020-04-22_14h33.55.550,ANT,3.1.3,60,,,3,0,3,0,1,2,2,0,96,36,1,95
0.8,right,1,0.430000067,,,,,,,stim/both.png,stim/congRight.png,right,0,7,001,2020-04-22_14h33.55.550,ANT,3.1.3,60,,,3,0,3,0,1,2,2,0,96,9,1,95
1.15,left,1,0.330000162,,,,,,,stim/both.png,stim/congLeft.png,left,0,7,001,2020-04-22_14h33.55.550,ANT,3.1.3,60,,,3,0,3,0,1,2,2,0,96,1,1,95
0.6,right,1,0.328999996,,,,,,,stim/centre.png,stim/congLeft.png,right,180,7,001,2020-04-22_14h33.55.550,ANT,3.1.3,60,,,3,0,3,0,1,2,2,0,96,6,1,95
1.1,left,1,0.680999994,,,,,,,stim/both.png,stim/incongRight.png,left,180,7,001,2020-04-22_14h33.55.550,ANT,3.1.3,60,,,3,0,3,0,1,2,2,0,96,29,1,95
1.5,right,1,0.578999996,,,,,,,stim/blank.png,stim/incongLeft.png,right,180,7,001,2020-04-22_14h33.55.550,ANT,3.1.3,60,,,3,0,3,0,1,2,2,0,96,23,1,95
0.8,right,1,0.430000067,,,,,,,stim/blank.png,stim/neutralRight.png,right,0,7,001,2020-04-22_14h33.55.550,ANT,3.1.3,60,,,3,0,3,0,1,2,2,0,96,43,1,95
0.75,right,1,0.596999884,,,,,,,stim/upper.png,stim/incongRight.png,right,0,7,001,2020-04-22_14h33.55.550,ANT,3.1.3,60,,,3,0,3,0,1,2,2,0,96,24,1,95
1.15,right,1,0.562000036,,,,,,,stim/blank.png,stim/incongRight.png,right,0,7,001,2020-04-22_14h33.55.550,ANT,3.1.3,60,,,3,0,3,0,1,2,2,0,96,27,1,95
0.9,left,1,0.379999876,,,,,,,stim/centre.png,stim/congRight.png,left,180,7,001,2020-04-22_14h33.55.550,ANT,3.1.3,60,,,3,0,3,0,1,2,2,0,96,14,1,95
0.4,right,1,0.513999939,,,,,,,stim/both.png,stim/incongRight.png,right,0,7,001,2020-04-22_14h33.55.550,ANT,3.1.3,60,,,3,0,3,0,1,2,2,0,96,25,1,95
0.45,left,1,0.496999979,,,,,,,stim/centre.png,stim/incongRight.png,left,180,7,001,2020-04-22_14h33.55.550,ANT,3.1.3,60,,,3,0,3,0,1,2,2,0,96,30,1,95
0.8,right,0,0.328999996,,,,,,,stim/centre.png,stim/incongLeft.png,left,0,7,001,2020-04-22_14h33.55.550,ANT,3.1.3,60,,,3,0,3,0,1,2,2,0,96,18,1,95
0.55,right,1,0.696000099,,,,,,,stim/blank.png,stim/neutralLeft.png,right,180,7,001,2020-04-22_14h33.55.550,ANT,3.1.3,60,,,3,0,3,0,1,2,2,0,96,39,1,95
1.15,right,1,0.546999931,,,,,,,stim/both.png,stim/congLeft.png,right,180,7,001,2020-04-22_14h33.55.550,ANT,3.1.3,60,,,3,0,3,0,1,2,2,0,96,5,1,95
0.8,right,1,0.447000027,,,,,,,stim/blank.png,stim/congRight.png,right,0,7,001,2020-04-22_14h33.55.550,ANT,3.1.3,60,,,3,0,3,0,1,2,2,0,96,11,1,95
0.4,left,1,0.346999884,,,,,,,stim/lower.png,stim/congRight.png,left,180,7,001,2020-04-22_14h33.55.550,ANT,3.1.3,60,,,3,0,3,0,1,2,2,0,96,12,1,95
1.55,right,1,0.864000082,,,,,,,stim/both.png,stim/incongLeft.png,right,180,7,001,2020-04-22_14h33.55.550,ANT,3.1.3,60,,,3,0,3,0,1,2,2,0,96,21,1,95
1.55,right,1,0.361999989,,,,,,,stim/both.png,stim/neutralLeft.png,right,180,7,001,2020-04-22_14h33.55.550,ANT,3.1.3,60,,,3,0,3,0,1,2,2,0,96,37,1,95
1.45,left,1,0.597000122,,,,,,,stim/upper.png,stim/incongLeft.png,left,0,7,001,2020-04-22_14h33.55.550,ANT,3.1.3,60,,,3,0,3,0,1,2,2,0,96,16,1,95
1.05,right,1,0.395999908,,,,,,,stim/blank.png,stim/congLeft.png,right,180,7,001,2020-04-22_14h33.55.550,ANT,3.1.3,60,,,3,0,3,0,1,2,2,0,96,7,1,95
1.25,right,1,0.56400013,,,,,,,stim/centre.png,stim/incongRight.png,right,0,7,001,2020-04-22_14h33.55.550,ANT,3.1.3,60,,,3,0,3,0,1,2,2,0,96,26,1,95
1.3,left,1,0.562000036,,,,,,,stim/both.png,stim/incongLeft.png,left,0,7,001,2020-04-22_14h33.55.550,ANT,3.1.3,60,,,3,0,3,0,1,2,2,0,96,17,1,95
1.4,right,1,0.763000011,,,,,,,stim/centre.png,stim/neutralRight.png,right,0,7,001,2020-04-22_14h33.55.550,ANT,3.1.3,60,,,3,0,3,0,1,2,2,0,96,42,1,95
1.55,right,1,0.463999987,,,,,,,stim/centre.png,stim/neutralLeft.png,right,180,7,001,2020-04-22_14h33.55.550,ANT,3.1.3,60,,,3,0,3,0,1,2,2,0,96,38,1,95
1.55,left,1,0.480000019,,,,,,,stim/lower.png,stim/neutralRight.png,left,180,7,001,2020-04-22_14h33.55.550,ANT,3.1.3,60,,,3,0,3,0,1,2,2,0,96,44,1,95
1.2,right,1,0.428999901,,,,,,,stim/centre.png,stim/congRight.png,right,0,7,001,2020-04-22_14h33.55.550,ANT,3.1.3,60,,,3,0,3,0,1,2,2,0,96,10,1,95
1.2,right,1,0.444999933,,,,,,,stim/lower.png,stim/congLeft.png,right,180,7,001,2020-04-22_14h33.55.550,ANT,3.1.3,60,,,3,0,3,0,1,2,2,0,96,4,1,95
1.3,left,1,0.429000139,,,,,,,stim/both.png,stim/neutralRight.png,left,180,7,001,2020-04-22_14h33.55.550,ANT,3.1.3,60,,,3,0,3,0,1,2,2,0,96,45,1,95
0.4,left,1,1.664000034,,,,,,,stim/upper.png,stim/neutralLeft.png,left,0,7,001,2020-04-22_14h33.55.550,ANT,3.1.3,60,,,3,0,3,0,1,2,2,0,96,32,1,95
0.5,right,1,0.562999964,,,,,,,stim/upper.png,stim/neutralRight.png,right,0,7,001,2020-04-22_14h33.55.550,ANT,3.1.3,60,,,3,0,3,0,1,2,2,0,96,40,1,95
0.9,left,1,0.546999931,,,,,,,stim/lower.png,stim/incongRight.png,left,180,7,001,2020-04-22_14h33.55.550,ANT,3.1.3,60,,,3,0,3,0,1,2,2,0,96,28,1,95
1.25,left,1,0.597000122,,,,,,,stim/blank.png,stim/incongLeft.png,left,0,7,001,2020-04-22_14h33.55.550,ANT,3.1.3,60,,,3,0,3,0,1,2,2,0,96,19,1,95
1.25,left,1,0.578999996,,,,,,,stim/blank.png,stim/congLeft.png,left,0,7,001,2020-04-22_14h33.55.550,ANT,3.1.3,60,,,3,0,3,0,1,2,2,0,96,3,1,95
0.55,left,1,0.447000027,,,,,,,stim/both.png,stim/neutralLeft.png,left,0,7,001,2020-04-22_14h33.55.550,ANT,3.1.3,60,,,3,0,3,0,1,2,2,0,96,33,1,95
0.45,right,1,0.414000034,,,,,,,stim/both.png,stim/neutralRight.png,right,0,7,001,2020-04-22_14h33.55.550,ANT,3.1.3,60,,,3,0,3,0,1,2,2,0,96,41,1,95
1.05,left,1,0.412999868,,,,,,,stim/centre.png,stim/neutralLeft.png,left,0,7,001,2020-04-22_14h33.55.550,ANT,3.1.3,60,,,3,0,3,0,1,2,2,0,96,34,1,95
0.75,left,1,0.631000042,,,,,,,stim/centre.png,stim/congLeft.png,left,0,7,001,2020-04-22_14h33.55.550,ANT,3.1.3,60,,,3,0,3,0,1,2,2,0,96,2,1,95
1.3,left,1,0.713000059,,,,,,,stim/blank.png,stim/incongRight.png,left,180,7,001,2020-04-22_14h33.55.550,ANT,3.1.3,60,,,3,0,3,0,1,2,2,0,96,31,1,95
1.55,right,1,0.647000074,,,,,,,stim/lower.png,stim/incongLeft.png,right,180,7,001,2020-04-22_14h33.55.550,ANT,3.1.3,60,,,3,0,3,0,1,2,2,0,96,20,1,95
,,,,,,,,,,,,,,7,001,2020-04-22_14h33.55.550,ANT,3.1.3,60,,,3,0,3,0,1,2,,,,,,
1.45,left,1,0.395999908,,,,,,,stim/upper.png,stim/congLeft.png,left,0,7,001,2020-04-22_14h33.55.550,ANT,3.1.3,60,,,3,0,3,0,1,2,2,0,96,0,1,95
1.45,left,1,0.679000139,,,,,,,stim/centre.png,stim/incongLeft.png,left,0,7,001,2020-04-22_14h33.55.550,ANT,3.1.3,60,,,3,0,3,0,1,2,2,0,96,18,1,95
0.6,left,1,0.529999971,,,,,,,stim/centre.png,stim/neutralRight.png,left,180,7,001,2020-04-22_14h33.55.550,ANT,3.1.3,60,,,3,0,3,0,1,2,2,0,96,46,1,95
1.55,left,1,0.497000217,,,,,,,stim/blank.png,stim/neutralLeft.png,left,0,7,001,2020-04-22_14h33.55.550,ANT,3.1.3,60,,,3,0,3,0,1,2,2,0,96,35,1,95
1.3,left,1,0.697000027,,,,,,,stim/both.png,stim/incongRight.png,left,180,7,001,2020-04-22_14h33.55.550,ANT,3.1.3,60,,,3,0,3,0,1,2,2,0,96,29,1,95
1.55,right,1,0.511999846,,,,,,,stim/blank.png,stim/congLeft.png,right,180,7,001,2020-04-22_14h33.55.550,ANT,3.1.3,60,,,3,0,3,0,1,2,2,0,96,7,1,95
1.4,right,1,0.463999987,,,,,,,stim/centre.png,stim/neutralLeft.png,right,180,7,001,2020-04-22_14h33.55.550,ANT,3.1.3,60,,,3,0,3,0,1,2,2,0,96,38,1,95
1.1,left,1,0.546000004,,,,,,,stim/blank.png,stim/congLeft.png,left,0,7,001,2020-04-22_14h33.55.550,ANT,3.1.3,60,,,3,0,3,0,1,2,2,0,96,3,1,95
1.55,right,1,0.513000011,,,,,,,stim/centre.png,stim/incongRight.png,right,0,7,001,2020-04-22_14h33.55.550,ANT,3.1.3,60,,,3,0,3,0,1,2,2,0,96,26,1,95
0.8,left,1,0.413000107,,,,,,,stim/centre.png,stim/congRight.png,left,180,7,001,2020-04-22_14h33.55.550,ANT,3.1.3,60,,,3,0,3,0,1,2,2,0,96,14,1,95
0.55,right,1,0.397000074,,,,,,,stim/lower.png,stim/neutralLeft.png,right,180,7,001,2020-04-22_14h33.55.550,ANT,3.1.3,60,,,3,0,3,0,1,2,2,0,96,36,1,95
1.3,right,1,0.614000082,,,,,,,stim/blank.png,stim/incongLeft.png,right,180,7,001,2020-04-22_14h33.55.550,ANT,3.1.3,60,,,3,0,3,0,1,2,2,0,96,23,1,95
1.35,left,1,0.513000011,,,,,,,stim/centre.png,stim/congLeft.png,left,0,7,001,2020-04-22_14h33.55.550,ANT,3.1.3,60,,,3,0,3,0,1,2,2,0,96,2,1,95
1.55,left,1,0.930000067,,,,,,,stim/lower.png,stim/incongRight.png,left,180,7,001,2020-04-22_14h33.55.550,ANT,3.1.3,60,,,3,0,3,0,1,2,2,0,96,28,1,95
0.4,right,1,0.580000162,,,,,,,stim/lower.png,stim/congLeft.png,right,180,7,001,2020-04-22_14h33.55.550,ANT,3.1.3,60,,,3,0,3,0,1,2,2,0,96,4,1,95
1.05,right,1,0.680000067,,,,,,,stim/blank.png,stim/incongRight.png,right,0,7,001,2020-04-22_14h33.55.550,ANT,3.1.3,60,,,3,0,3,0,1,2,2,0,96,27,1,95
1.15,left,1,0.54700017,,,,,,,stim/upper.png,stim/incongLeft.png,left,0,7,001,2020-04-22_14h33.55.550,ANT,3.1.3,60,,,3,0,3,0,1,2,2,0,96,16,1,95
1.15,left,1,0.413000107,,,,,,,stim/blank.png,stim/neutralRight.png,left,180,7,001,2020-04-22_14h33.55.550,ANT,3.1.3,60,,,3,0,3,0,1,2,2,0,96,47,1,95
1.5,right,1,0.413000107,,,,,,,stim/both.png,stim/neutralLeft.png,right,180,7,001,2020-04-22_14h33.55.550,ANT,3.1.3,60,,,3,0,3,0,1,2,2,0,96,37,1,95
1.2,left,1,0.497000217,,,,,,,stim/centre.png,stim/incongRight.png,left,180,7,001,2020-04-22_14h33.55.550,ANT,3.1.3,60,,,3,0,3,0,1,2,2,0,96,30,1,95
1.2,right,1,0.447000027,,,,,,,stim/blank.png,stim/neutralLeft.png,right,180,7,001,2020-04-22_14h33.55.550,ANT,3.1.3,60,,,3,0,3,0,1,2,2,0,96,39,1,95
1.2,right,1,0.597000122,,,,,,,stim/upper.png,stim/congRight.png,right,0,7,001,2020-04-22_14h33.55.550,ANT,3.1.3,60,,,3,0,3,0,1,2,2,0,96,8,1,95
0.75,left,1,0.747000217,,,,,,,stim/blank.png,stim/incongLeft.png,left,0,7,001,2020-04-22_14h33.55.550,ANT,3.1.3,60,,,3,0,3,0,1,2,2,0,96,19,1,95
0.7,left,1,0.397000074,,,,,,,stim/lower.png,stim/congRight.png,left,180,7,001,2020-04-22_14h33.55.550,ANT,3.1.3,60,,,3,0,3,0,1,2,2,0,96,12,1,95
1.55,right,1,0.447000027,,,,,,,stim/both.png,stim/congRight.png,right,0,7,001,2020-04-22_14h33.55.550,ANT,3.1.3,60,,,3,0,3,0,1,2,2,0,96,9,1,95
1.15,left,0,0.380000114,,,,,,,stim/centre.png,stim/incongLeft.png,right,180,7,001,2020-04-22_14h33.55.550,ANT,3.1.3,60,,,3,0,3,0,1,2,2,0,96,22,1,95
1.55,left,1,0.463999987,,,,,,,stim/centre.png,stim/neutralLeft.png,left,0,7,001,2020-04-22_14h33.55.550,ANT,3.1.3,60,,,3,0,3,0,1,2,2,0,96,34,1,95
0.6,right,1,0.413000107,,,,,,,stim/centre.png,stim/congRight.png,right,0,7,001,2020-04-22_14h33.55.550,ANT,3.1.3,60,,,3,0,3,0,1,2,2,0,96,10,1,95
1.45,right,1,0.579999924,,,,,,,stim/upper.png,stim/incongRight.png,right,0,7,001,2020-04-22_14h33.55.550,ANT,3.1.3,60,,,3,0,3,0,1,2,2,0,96,24,1,95
1.5,right,1,0.430000067,,,,,,,stim/centre.png,stim/neutralRight.png,right,0,7,001,2020-04-22_14h33.55.550,ANT,3.1.3,60,,,3,0,3,0,1,2,2,0,96,42,1,95
1.25,left,1,0.429000139,,,,,,,stim/both.png,stim/congRight.png,left,180,7,001,2020-04-22_14h33.55.550,ANT,3.1.3,60,,,3,0,3,0,1,2,2,0,96,13,1,95
1.4,left,1,0.56400013,,,,,,,stim/upper.png,stim/neutralLeft.png,left,0,7,001,2020-04-22_14h33.55.550,ANT,3.1.3,60,,,3,0,3,0,1,2,2,0,96,32,1,95
1.3,right,1,0.414000034,,,,,,,stim/upper.png,stim/neutralRight.png,right,0,7,001,2020-04-22_14h33.55.550,ANT,3.1.3,60,,,3,0,3,0,1,2,2,0,96,40,1,95
1.15,right,1,0.463000059,,,,,,,stim/blank.png,stim/congRight.png,right,0,7,001,2020-04-22_14h33.55.550,ANT,3.1.3,60,,,3,0,3,0,1,2,2,0,96,11,1,95
1,right,1,0.579999924,,,,,,,stim/both.png,stim/incongRight.png,right,0,7,001,2020-04-22_14h33.55.550,ANT,3.1.3,60,,,3,0,3,0,1,2,2,0,96,25,1,95
1.45,right,1,0.647000074,,,,,,,stim/both.png,stim/incongLeft.png,right,180,7,001,2020-04-22_14h33.55.550,ANT,3.1.3,60,,,3,0,3,0,1,2,2,0,96,21,1,95
0.5,right,1,0.530999899,,,,,,,stim/lower.png,stim/incongLeft.png,right,180,7,001,2020-04-22_14h33.55.550,ANT,3.1.3,60,,,3,0,3,0,1,2,2,0,96,20,1,95
1.15,right,1,0.430000067,,,,,,,stim/both.png,stim/congLeft.png,right,180,7,001,2020-04-22_14h33.55.550,ANT,3.1.3,60,,,3,0,3,0,1,2,2,0,96,5,1,95
0.9,right,1,0.845999956,,,,,,,stim/both.png,stim/neutralRight.png,right,0,7,001,2020-04-22_14h33.55.550,ANT,3.1.3,60,,,3,0,3,0,1,2,2,0,96,41,1,95
1.2,left,1,0.562999964,,,,,,,stim/both.png,stim/congLeft.png,left,0,7,001,2020-04-22_14h33.55.550,ANT,3.1.3,60,,,3,0,3,0,1,2,2,0,96,1,1,95
0.5,left,1,0.679000139,,,,,,,stim/both.png,stim/incongLeft.png,left,0,7,001,2020-04-22_14h33.55.550,ANT,3.1.3,60,,,3,0,3,0,1,2,2,0,96,17,1,95
0.4,left,1,0.446999788,,,,,,,stim/blank.png,stim/congRight.png,left,180,7,001,2020-04-22_14h33.55.550,ANT,3.1.3,60,,,3,0,3,0,1,2,2,0,96,15,1,95
0.7,left,1,0.463999987,,,,,,,stim/both.png,stim/neutralRight.png,left,180,7,001,2020-04-22_14h33.55.550,ANT,3.1.3,60,,,3,0,3,0,1,2,2,0,96,45,1,95
0.75,left,1,0.512000084,,,,,,,stim/lower.png,stim/neutralRight.png,left,180,7,001,2020-04-22_14h33.55.550,ANT,3.1.3,60,,,3,0,3,0,1,2,2,0,96,44,1,95
1.1,left,1,0.546000004,,,,,,,stim/both.png,stim/neutralLeft.png,left,0,7,001,2020-04-22_14h33.55.550,ANT,3.1.3,60,,,3,0,3,0,1,2,2,0,96,33,1,95
0.9,left,1,0.746999979,,,,,,,stim/blank.png,stim/incongRight.png,left,180,7,001,2020-04-22_14h33.55.550,ANT,3.1.3,60,,,3,0,3,0,1,2,2,0,96,31,1,95
1.4,right,1,0.447000027,,,,,,,stim/centre.png,stim/congLeft.png,right,180,7,001,2020-04-22_14h33.55.550,ANT,3.1.3,60,,,3,0,3,0,1,2,2,0,96,6,1,95
0.7,right,1,0.529999971,,,,,,,stim/blank.png,stim/neutralRight.png,right,0,7,001,2020-04-22_14h33.55.550,ANT,3.1.3,60,,,3,0,3,0,1,2,2,0,96,43,1,95
1.45,right,1,0.679999828,,,,,,,stim/centre.png,stim/incongRight.png,right,0,7,001,2020-04-22_14h33.55.550,ANT,3.1.3,60,,,3,0,3,0,1,2,2,0,96,26,1,95
0.7,left,1,0.430000067,,,,,,,stim/blank.png,stim/congLeft.png,left,0,7,001,2020-04-22_14h33.55.550,ANT,3.1.3,60,,,3,0,3,0,1,2,2,0,96,3,1,95
0.7,right,1,0.413999796,,,,,,,stim/lower.png,stim/congLeft.png,right,180,7,001,2020-04-22_14h33.55.550,ANT,3.1.3,60,,,3,0,3,0,1,2,2,0,96,4,1,95
0.55,right,1,0.595999956,,,,,,,stim/blank.png,stim/incongRight.png,right,0,7,001,2020-04-22_14h33.55.550,ANT,3.1.3,60,,,3,0,3,0,1,2,2,0,96,27,1,95
1.1,left,1,0.596999884,,,,,,,stim/blank.png,stim/incongRight.png,left,180,7,001,2020-04-22_14h33.55.550,ANT,3.1.3,60,,,3,0,3,0,1,2,2,0,96,31,1,95
1.45,left,1,0.596999884,,,,,,,stim/centre.png,stim/incongLeft.png,left,0,7,001,2020-04-22_14h33.55.550,ANT,3.1.3,60,,,3,0,3,0,1,2,2,0,96,18,1,95
0.55,left,1,0.513000011,,,,,,,stim/upper.png,stim/neutralLeft.png,left,0,7,001,2020-04-22_14h33.55.550,ANT,3.1.3,60,,,3,0,3,0,1,2,2,0,96,32,1,95
1.1,right,1,0.470000029,,,,,,,stim/blank.png,stim/neutralLeft.png,right,180,7,001,2020-04-22_14h33.55.550,ANT,3.1.3,60,,,3,0,3,0,1,2,2,0,96,39,1,95
1.55,left,1,0.447000027,,,,,,,stim/both.png,stim/neutralRight.png,left,180,7,001,2020-04-22_14h33.55.550,ANT,3.1.3,60,,,3,0,3,0,1,2,2,0,96,45,1,95
0.75,left,1,0.690000057,,,,,,,stim/blank.png,stim/incongLeft.png,left,0,7,001,2020-04-22_14h33.55.550,ANT,3.1.3,60,,,3,0,3,0,1,2,2,0,96,19,1,95
1.45,left,1,0.414000034,,,,,,,stim/centre.png,stim/neutralRight.png,left,180,7,001,2020-04-22_14h33.55.550,ANT,3.1.3,60,,,3,0,3,0,1,2,2,0,96,46,1,95
1.35,right,1,0.496000051,,,,,,,stim/blank.png,stim/congLeft.png,right,180,7,001,2020-04-22_14h33.55.550,ANT,3.1.3,60,,,3,0,3,0,1,2,2,0,96,7,1,95
1.25,right,1,0.514000177,,,,,,,stim/both.png,stim/congRight.png,right,0,7,001,2020-04-22_14h33.55.550,ANT,3.1.3,60,,,3,0,3,0,1,2,2,0,96,9,1,95
1.5,left,1,0.496000051,,,,,,,stim/both.png,stim/neutralLeft.png,left,0,7,001,2020-04-22_14h33.55.550,ANT,3.1.3,60,,,3,0,3,0,1,2,2,0,96,33,1,95
0.95,left,1,0.463000059,,,,,,,stim/centre.png,stim/neutralLeft.png,left,0,7,001,2020-04-22_14h33.55.550,ANT,3.1.3,60,,,3,0,3,0,1,2,2,0,96,34,1,95
0.55,right,0,0.445999861,,,,,,,stim/lower.png,stim/incongRight.png,left,180,7,001,2020-04-22_14h33.55.550,ANT,3.1.3,60,,,3,0,3,0,1,2,2,0,96,28,1,95
1.55,right,1,0.496000051,,,,,,,stim/both.png,stim/neutralLeft.png,right,180,7,001,2020-04-22_14h33.55.550,ANT,3.1.3,60,,,3,0,3,0,1,2,2,0,96,37,1,95
1.25,left,1,0.514000177,,,,,,,stim/blank.png,stim/neutralLeft.png,left,0,7,001,2020-04-22_14h33.55.550,ANT,3.1.3,60,,,3,0,3,0,1,2,2,0,96,35,1,95
0.95,left,1,0.480000019,,,,,,,stim/upper.png,stim/congLeft.png,left,0,7,001,2020-04-22_14h33.55.550,ANT,3.1.3,60,,,3,0,3,0,1,2,2,0,96,0,1,95
0.4,left,1,0.495000124,,,,,,,stim/blank.png,stim/congRight.png,left,180,7,001,2020-04-22_14h33.55.550,ANT,3.1.3,60,,,3,0,3,0,1,2,2,0,96,15,1,95
0.6,left,1,0.78000021,,,,,,,stim/centre.png,stim/incongRight.png,left,180,7,001,2020-04-22_14h33.55.550,ANT,3.1.3,60,,,3,0,3,0,1,2,2,0,96,30,1,95
0.5,right,1,0.464000225,,,,,,,stim/centre.png,stim/congRight.png,right,0,7,001,2020-04-22_14h33.55.550,ANT,3.1.3,60,,,3,0,3,0,1,2,2,0,96,10,1,95
0.65,right,1,0.479000092,,,,,,,stim/centre.png,stim/neutralLeft.png,right,180,7,001,2020-04-22_14h33.55.550,ANT,3.1.3,60,,,3,0,3,0,1,2,2,0,96,38,1,95
1.55,right,1,1.579999924,,,,,,,stim/blank.png,stim/incongLeft.png,right,180,7,001,2020-04-22_14h33.55.550,ANT,3.1.3,60,,,3,0,3,0,1,2,2,0,96,23,1,95
1.4,right,1,0.612999916,,,,,,,stim/upper.png,stim/incongRight.png,right,0,7,001,2020-04-22_14h33.55.550,ANT,3.1.3,60,,,3,0,3,0,1,2,2,0,96,24,1,95
1.5,left,1,0.496999979,,,,,,,stim/lower.png,stim/congRight.png,left,180,7,001,2020-04-22_14h33.55.550,ANT,3.1.3,60,,,3,0,3,0,1,2,2,0,96,12,1,95
1.5,left,1,0.514000177,,,,,,,stim/both.png,stim/congLeft.png,left,0,7,001,2020-04-22_14h33.55.550,ANT,3.1.3,60,,,3,0,3,0,1,2,2,0,96,1,1,95
1.15,right,1,0.480000019,,,,,,,stim/both.png,stim/congLeft.png,right,180,7,001,2020-04-22_14h33.55.550,ANT,3.1.3,60,,,3,0,3,0,1,2,2,0,96,5,1,95
0.75,left,1,0.546999931,,,,,,,stim/both.png,stim/incongRight.png,left,180,7,001,2020-04-22_14h33.55.550,ANT,3.1.3,60,,,3,0,3,0,1,2,2,0,96,29,1,95
1.1,right,1,0.513999939,,,,,,,stim/lower.png,stim/incongLeft.png,right,180,7,001,2020-04-22_14h33.55.550,ANT,3.1.3,60,,,3,0,3,0,1,2,2,0,96,20,1,95
0.5,right,1,0.579999924,,,,,,,stim/upper.png,stim/neutralRight.png,right,0,7,001,2020-04-22_14h33.55.550,ANT,3.1.3,60,,,3,0,3,0,1,2,2,0,96,40,1,95
1.05,left,1,0.480000019,,,,,,,stim/both.png,stim/congRight.png,left,180,7,001,2020-04-22_14h33.55.550,ANT,3.1.3,60,,,3,0,3,0,1,2,2,0,96,13,1,95
0.55,right,1,0.463000059,,,,,,,stim/lower.png,stim/neutralLeft.png,right,180,7,001,2020-04-22_14h33.55.550,ANT,3.1.3,60,,,3,0,3,0,1,2,2,0,96,36,1,95
0.55,,0,,,,,,,,stim/both.png,stim/incongLeft.png,right,180,7,001,2020-04-22_14h33.55.550,ANT,3.1.3,60,,,3,0,3,0,1,2,2,0,96,21,1,95
0.95,right,1,0.447000027,,,,,,,stim/blank.png,stim/neutralRight.png,right,0,7,001,2020-04-22_14h33.55.550,ANT,3.1.3,60,,,3,0,3,0,1,2,2,0,96,43,1,95
0.45,left,1,0.614000082,,,,,,,stim/upper.png,stim/incongLeft.png,left,0,7,001,2020-04-22_14h33.55.550,ANT,3.1.3,60,,,3,0,3,0,1,2,2,0,96,16,1,95
0.95,left,1,0.428999901,,,,,,,stim/centre.png,stim/congRight.png,left,180,7,001,2020-04-22_14h33.55.550,ANT,3.1.3,60,,,3,0,3,0,1,2,2,0,96,14,1,95
0.85,right,1,0.447000027,,,,,,,stim/centre.png,stim/neutralRight.png,right,0,7,001,2020-04-22_14h33.55.550,ANT,3.1.3,60,,,3,0,3,0,1,2,2,0,96,42,1,95
0.65,right,1,0.429999828,,,,,,,stim/centre.png,stim/congLeft.png,right,180,7,001,2020-04-22_14h33.55.550,ANT,3.1.3,60,,,3,0,3,0,1,2,2,0,96,6,1,95
1.2,right,1,0.630000114,,,,,,,stim/centre.png,stim/incongLeft.png,right,180,7,001,2020-04-22_14h33.55.550,ANT,3.1.3,60,,,3,0,3,0,1,2,2,0,96,22,1,95
1.45,left,1,0.513000011,,,,,,,stim/blank.png,stim/neutralRight.png,left,180,7,001,2020-04-22_14h33.55.550,ANT,3.1.3,60,,,3,0,3,0,1,2,2,0,96,47,1,95
1.2,right,1,0.463999987,,,,,,,stim/both.png,stim/neutralRight.png,right,0,7,001,2020-04-22_14h33.55.550,ANT,3.1.3,60,,,3,0,3,0,1,2,2,0,96,41,1,95
0.55,right,1,0.730000019,,,,,,,stim/both.png,stim/incongRight.png,right,0,7,001,2020-04-22_14h33.55.550,ANT,3.1.3,60,,,3,0,3,0,1,2,2,0,96,25,1,95
0.9,left,1,0.712000132,,,,,,,stim/both.png,stim/incongLeft.png,left,0,7,001,2020-04-22_14h33.55.550,ANT,3.1.3,60,,,3,0,3,0,1,2,2,0,96,17,1,95
1,right,1,0.496999979,,,,,,,stim/blank.png,stim/congRight.png,right,0,7,001,2020-04-22_14h33.55.550,ANT,3.1.3,60,,,3,0,3,0,1,2,2,0,96,11,1,95
0.6,right,1,0.397000074,,,,,,,stim/upper.png,stim/congRight.png,right,0,7,001,2020-04-22_14h33.55.550,ANT,3.1.3,60,,,3,0,3,0,1,2,2,0,96,8,1,95
1.2,left,1,0.480000019,,,,,,,stim/centre.png,stim/congLeft.png,left,0,7,001,2020-04-22_14h33.55.550,ANT,3.1.3,60,,,3,0,3,0,1,2,2,0,96,2,1,95
1,left,1,0.496999979,,,,,,,stim/lower.png,stim/neutralRight.png,left,180,7,001,2020-04-22_14h33.55.550,ANT,3.1.3,60,,,3,0,3,0,1,2,2,0,96,44,1,95
,,,,,,,,,,,,,,7,001,2020-04-22_14h33.55.550,ANT,3.1.3,60,,,3,0,3,0,1,2,,,,,,
