fixDuration,resp.keys,resp.corr,resp.rt,pracLoop.thisRepN,pracLoop.thisTrialN,pracLoop.thisN,pracLoop.thisIndex,pracLoop.ran,pracLoop.order,cue,tar,corrAns,targOrientation,participant,session,date,expName,psychopyVersion,frameRate,instResp.keys,instResp.rt,blockLoop.thisRepN,blockLoop.thisTrialN,blockLoop.thisN,blockLoop.thisIndex,blockLoop.ran,blockLoop.order,mainLoop.thisRepN,mainLoop.thisTrialN,mainLoop.thisN,mainLoop.thisIndex,mainLoop.ran,mainLoop.order
1.2,left,1,0.751,1,0,3,1,1,2,stim/both.png,stim/congLeft.png,left,0,999,001,2019-02-07_12h53.53.191,ANT,3.0.0b12,60,,,,,,,,,,,,,,
0.8,left,1,0.592,1,0,3,0,1,2,stim/upper.png,stim/congLeft.png,left,0,999,001,2019-02-07_12h53.53.191,ANT,3.0.0b12,60,,,,,,,,,,,,,,
0.95,left,1,0.617,1,0,3,2,1,2,stim/centre.png,stim/congLeft.png,left,0,999,001,2019-02-07_12h53.53.191,ANT,3.0.0b12,60,,,,,,,,,,,,,,
0.5,right,1,0.581,,,,,,,stim/upper.png,stim/neutralRight.png,right,0,999,001,2019-02-07_12h53.53.191,ANT,3.0.0b12,60,space,5.203,3,0,3,0,1,2,2,0,96,40,1,95
0.75,left,1,1.087,,,,,,,stim/blank.png,stim/neutralRight.png,left,180,999,001,2019-02-07_12h53.53.191,ANT,3.0.0b12,60,,,3,0,3,0,1,2,2,0,96,47,1,95
1.15,right,1,0.56,,,,,,,stim/centre.png,stim/congLeft.png,right,180,999,001,2019-02-07_12h53.53.191,ANT,3.0.0b12,60,,,3,0,3,0,1,2,2,0,96,6,1,95
0.55,right,1,0.687,,,,,,,stim/centre.png,stim/incongLeft.png,right,180,999,001,2019-02-07_12h53.53.191,ANT,3.0.0b12,60,,,3,0,3,0,1,2,2,0,96,22,1,95
1.15,left,1,0.631,,,,,,,stim/lower.png,stim/neutralRight.png,left,180,999,001,2019-02-07_12h53.53.191,ANT,3.0.0b12,60,,,3,0,3,0,1,2,2,0,96,44,1,95
0.65,left,1,0.57,,,,,,,stim/both.png,stim/neutralRight.png,left,180,999,001,2019-02-07_12h53.53.191,ANT,3.0.0b12,60,,,3,0,3,0,1,2,2,0,96,45,1,95
0.65,right,1,0.679,,,,,,,stim/blank.png,stim/incongRight.png,right,0,999,001,2019-02-07_12h53.53.191,ANT,3.0.0b12,60,,,3,0,3,0,1,2,2,0,96,27,1,95
0.85,left,1,0.672,,,,,,,stim/upper.png,stim/incongLeft.png,left,0,999,001,2019-02-07_12h53.53.191,ANT,3.0.0b12,60,,,3,0,3,0,1,2,2,0,96,16,1,95
1.5,left,1,0.578,,,,,,,stim/both.png,stim/congLeft.png,left,0,999,001,2019-02-07_12h53.53.191,ANT,3.0.0b12,60,,,3,0,3,0,1,2,2,0,96,1,1,95
0.5,right,1,0.495,,,,,,,stim/lower.png,stim/congLeft.png,right,180,999,001,2019-02-07_12h53.53.191,ANT,3.0.0b12,60,,,3,0,3,0,1,2,2,0,96,4,1,95
0.75,right,1,0.645,,,,,,,stim/centre.png,stim/incongRight.png,right,0,999,001,2019-02-07_12h53.53.191,ANT,3.0.0b12,60,,,3,0,3,0,1,2,2,0,96,26,1,95
1,left,1,0.44,,,,,,,stim/centre.png,stim/congRight.png,left,180,999,001,2019-02-07_12h53.53.191,ANT,3.0.0b12,60,,,3,0,3,0,1,2,2,0,96,14,1,95
0.4,right,1,0.53,,,,,,,stim/blank.png,stim/neutralRight.png,right,0,999,001,2019-02-07_12h53.53.191,ANT,3.0.0b12,60,,,3,0,3,0,1,2,2,0,96,43,1,95
1.35,left,1,0.498,,,,,,,stim/blank.png,stim/congRight.png,left,180,999,001,2019-02-07_12h53.53.191,ANT,3.0.0b12,60,,,3,0,3,0,1,2,2,0,96,15,1,95
0.5,right,1,0.567,,,,,,,stim/blank.png,stim/congRight.png,right,0,999,001,2019-02-07_12h53.53.191,ANT,3.0.0b12,60,,,3,0,3,0,1,2,2,0,96,11,1,95
1.4,left,1,0.494,,,,,,,stim/blank.png,stim/neutralLeft.png,left,0,999,001,2019-02-07_12h53.53.191,ANT,3.0.0b12,60,,,3,0,3,0,1,2,2,0,96,35,1,95
1.15,left,1,0.47,,,,,,,stim/both.png,stim/congRight.png,left,180,999,001,2019-02-07_12h53.53.191,ANT,3.0.0b12,60,,,3,0,3,0,1,2,2,0,96,13,1,95
1.4,right,0,0.436,,,,,,,stim/lower.png,stim/incongRight.png,left,180,999,001,2019-02-07_12h53.53.191,ANT,3.0.0b12,60,,,3,0,3,0,1,2,2,0,96,28,1,95
1.25,right,1,0.437,,,,,,,stim/blank.png,stim/neutralLeft.png,right,180,999,001,2019-02-07_12h53.53.191,ANT,3.0.0b12,60,,,3,0,3,0,1,2,2,0,96,39,1,95
0.8,left,1,0.671,,,,,,,stim/both.png,stim/incongRight.png,left,180,999,001,2019-02-07_12h53.53.191,ANT,3.0.0b12,60,,,3,0,3,0,1,2,2,0,96,29,1,95
0.75,left,1,0.628,,,,,,,stim/upper.png,stim/neutralLeft.png,left,0,999,001,2019-02-07_12h53.53.191,ANT,3.0.0b12,60,,,3,0,3,0,1,2,2,0,96,32,1,95
1.3,left,1,0.43,,,,,,,stim/upper.png,stim/congLeft.png,left,0,999,001,2019-02-07_12h53.53.191,ANT,3.0.0b12,60,,,3,0,3,0,1,2,2,0,96,0,1,95
1.55,right,1,0.519,,,,,,,stim/lower.png,stim/incongLeft.png,right,180,999,001,2019-02-07_12h53.53.191,ANT,3.0.0b12,60,,,3,0,3,0,1,2,2,0,96,20,1,95
0.9,right,1,0.542,,,,,,,stim/both.png,stim/incongLeft.png,right,180,999,001,2019-02-07_12h53.53.191,ANT,3.0.0b12,60,,,3,0,3,0,1,2,2,0,96,21,1,95
0.5,right,1,0.495,,,,,,,stim/blank.png,stim/incongLeft.png,right,180,999,001,2019-02-07_12h53.53.191,ANT,3.0.0b12,60,,,3,0,3,0,1,2,2,0,96,23,1,95
1.25,left,1,0.448,,,,,,,stim/centre.png,stim/congLeft.png,left,0,999,001,2019-02-07_12h53.53.191,ANT,3.0.0b12,60,,,3,0,3,0,1,2,2,0,96,2,1,95
0.85,right,1,0.597,,,,,,,stim/both.png,stim/neutralRight.png,right,0,999,001,2019-02-07_12h53.53.191,ANT,3.0.0b12,60,,,3,0,3,0,1,2,2,0,96,41,1,95
0.8,left,1,0.492,,,,,,,stim/centre.png,stim/neutralRight.png,left,180,999,001,2019-02-07_12h53.53.191,ANT,3.0.0b12,60,,,3,0,3,0,1,2,2,0,96,46,1,95
1.5,left,1,0.556,,,,,,,stim/centre.png,stim/incongRight.png,left,180,999,001,2019-02-07_12h53.53.191,ANT,3.0.0b12,60,,,3,0,3,0,1,2,2,0,96,30,1,95
0.95,left,1,0.626,,,,,,,stim/both.png,stim/incongLeft.png,left,0,999,001,2019-02-07_12h53.53.191,ANT,3.0.0b12,60,,,3,0,3,0,1,2,2,0,96,17,1,95
1,right,1,0.416,,,,,,,stim/both.png,stim/congRight.png,right,0,999,001,2019-02-07_12h53.53.191,ANT,3.0.0b12,60,,,3,0,3,0,1,2,2,0,96,9,1,95
0.7,right,1,0.827,,,,,,,stim/upper.png,stim/congRight.png,right,0,999,001,2019-02-07_12h53.53.191,ANT,3.0.0b12,60,,,3,0,3,0,1,2,2,0,96,8,1,95
1.5,right,1,0.431,,,,,,,stim/both.png,stim/neutralLeft.png,right,180,999,001,2019-02-07_12h53.53.191,ANT,3.0.0b12,60,,,3,0,3,0,1,2,2,0,96,37,1,95
1.2,left,0,0.412,,,,,,,stim/both.png,stim/incongRight.png,right,0,999,001,2019-02-07_12h53.53.191,ANT,3.0.0b12,60,,,3,0,3,0,1,2,2,0,96,25,1,95
0.75,left,1,0.411,,,,,,,stim/lower.png,stim/congRight.png,left,180,999,001,2019-02-07_12h53.53.191,ANT,3.0.0b12,60,,,3,0,3,0,1,2,2,0,96,12,1,95
0.95,right,1,0.482,,,,,,,stim/both.png,stim/congLeft.png,right,180,999,001,2019-02-07_12h53.53.191,ANT,3.0.0b12,60,,,3,0,3,0,1,2,2,0,96,5,1,95
0.5,left,1,0.53,,,,,,,stim/blank.png,stim/incongLeft.png,left,0,999,001,2019-02-07_12h53.53.191,ANT,3.0.0b12,60,,,3,0,3,0,1,2,2,0,96,19,1,95
1.25,left,1,0.493,,,,,,,stim/centre.png,stim/neutralLeft.png,left,0,999,001,2019-02-07_12h53.53.191,ANT,3.0.0b12,60,,,3,0,3,0,1,2,2,0,96,34,1,95
0.8,left,1,0.524,,,,,,,stim/centre.png,stim/incongLeft.png,left,0,999,001,2019-02-07_12h53.53.191,ANT,3.0.0b12,60,,,3,0,3,0,1,2,2,0,96,18,1,95
1.45,right,1,0.487,,,,,,,stim/centre.png,stim/congRight.png,right,0,999,001,2019-02-07_12h53.53.191,ANT,3.0.0b12,60,,,3,0,3,0,1,2,2,0,96,10,1,95
1.05,left,1,0.623,,,,,,,stim/blank.png,stim/incongRight.png,left,180,999,001,2019-02-07_12h53.53.191,ANT,3.0.0b12,60,,,3,0,3,0,1,2,2,0,96,31,1,95
0.8,right,1,0.561,,,,,,,stim/upper.png,stim/incongRight.png,right,0,999,001,2019-02-07_12h53.53.191,ANT,3.0.0b12,60,,,3,0,3,0,1,2,2,0,96,24,1,95
0.55,right,1,0.501,,,,,,,stim/lower.png,stim/neutralLeft.png,right,180,999,001,2019-02-07_12h53.53.191,ANT,3.0.0b12,60,,,3,0,3,0,1,2,2,0,96,36,1,95
0.65,left,1,0.541,,,,,,,stim/blank.png,stim/congLeft.png,left,0,999,001,2019-02-07_12h53.53.191,ANT,3.0.0b12,60,,,3,0,3,0,1,2,2,0,96,3,1,95
0.85,left,1,0.543,,,,,,,stim/both.png,stim/neutralLeft.png,left,0,999,001,2019-02-07_12h53.53.191,ANT,3.0.0b12,60,,,3,0,3,0,1,2,2,0,96,33,1,95
1.4,right,1,0.558,,,,,,,stim/centre.png,stim/neutralRight.png,right,0,999,001,2019-02-07_12h53.53.191,ANT,3.0.0b12,60,,,3,0,3,0,1,2,2,0,96,42,1,95
1.2,right,1,0.592,,,,,,,stim/centre.png,stim/neutralLeft.png,right,180,999,001,2019-02-07_12h53.53.191,ANT,3.0.0b12,60,,,3,0,3,0,1,2,2,0,96,38,1,95
1.15,right,1,0.49,,,,,,,stim/blank.png,stim/congLeft.png,right,180,999,001,2019-02-07_12h53.53.191,ANT,3.0.0b12,60,,,3,0,3,0,1,2,2,0,96,7,1,95
0.9,left,1,0.544,,,,,,,stim/centre.png,stim/incongRight.png,left,180,999,001,2019-02-07_12h53.53.191,ANT,3.0.0b12,60,,,3,0,3,0,1,2,2,0,96,30,1,95
0.85,right,1,0.52,,,,,,,stim/blank.png,stim/incongRight.png,right,0,999,001,2019-02-07_12h53.53.191,ANT,3.0.0b12,60,,,3,0,3,0,1,2,2,0,96,27,1,95
1.45,right,1,0.495,,,,,,,stim/both.png,stim/incongLeft.png,right,180,999,001,2019-02-07_12h53.53.191,ANT,3.0.0b12,60,,,3,0,3,0,1,2,2,0,96,21,1,95
0.95,left,1,0.529,,,,,,,stim/lower.png,stim/incongRight.png,left,180,999,001,2019-02-07_12h53.53.191,ANT,3.0.0b12,60,,,3,0,3,0,1,2,2,0,96,28,1,95
1.1,right,1,0.413,,,,,,,stim/centre.png,stim/neutralLeft.png,right,180,999,001,2019-02-07_12h53.53.191,ANT,3.0.0b12,60,,,3,0,3,0,1,2,2,0,96,38,1,95
1.1,right,1,0.406,,,,,,,stim/blank.png,stim/congLeft.png,right,180,999,001,2019-02-07_12h53.53.191,ANT,3.0.0b12,60,,,3,0,3,0,1,2,2,0,96,7,1,95
0.8,right,1,0.478,,,,,,,stim/lower.png,stim/neutralLeft.png,right,180,999,001,2019-02-07_12h53.53.191,ANT,3.0.0b12,60,,,3,0,3,0,1,2,2,0,96,36,1,95
0.55,left,0,0.279,,,,,,,stim/upper.png,stim/neutralRight.png,right,0,999,001,2019-02-07_12h53.53.191,ANT,3.0.0b12,60,,,3,0,3,0,1,2,2,0,96,40,1,95
1.1,right,1,0.507,,,,,,,stim/both.png,stim/incongRight.png,right,0,999,001,2019-02-07_12h53.53.191,ANT,3.0.0b12,60,,,3,0,3,0,1,2,2,0,96,25,1,95
1,left,1,0.438,,,,,,,stim/both.png,stim/neutralRight.png,left,180,999,001,2019-02-07_12h53.53.191,ANT,3.0.0b12,60,,,3,0,3,0,1,2,2,0,96,45,1,95
0.45,left,1,0.48,,,,,,,stim/blank.png,stim/congRight.png,left,180,999,001,2019-02-07_12h53.53.191,ANT,3.0.0b12,60,,,3,0,3,0,1,2,2,0,96,15,1,95
0.65,right,0,0.407,,,,,,,stim/both.png,stim/incongLeft.png,left,0,999,001,2019-02-07_12h53.53.191,ANT,3.0.0b12,60,,,3,0,3,0,1,2,2,0,96,17,1,95
0.65,right,1,0.488,,,,,,,stim/upper.png,stim/incongRight.png,right,0,999,001,2019-02-07_12h53.53.191,ANT,3.0.0b12,60,,,3,0,3,0,1,2,2,0,96,24,1,95
0.9,left,1,0.491,,,,,,,stim/blank.png,stim/neutralRight.png,left,180,999,001,2019-02-07_12h53.53.191,ANT,3.0.0b12,60,,,3,0,3,0,1,2,2,0,96,47,1,95
1,left,1,0.605,,,,,,,stim/blank.png,stim/incongRight.png,left,180,999,001,2019-02-07_12h53.53.191,ANT,3.0.0b12,60,,,3,0,3,0,1,2,2,0,96,31,1,95
1.4,left,1,0.456,,,,,,,stim/upper.png,stim/neutralLeft.png,left,0,999,001,2019-02-07_12h53.53.191,ANT,3.0.0b12,60,,,3,0,3,0,1,2,2,0,96,32,1,95
0.7,right,0,0.444,,,,,,,stim/upper.png,stim/incongLeft.png,left,0,999,001,2019-02-07_12h53.53.191,ANT,3.0.0b12,60,,,3,0,3,0,1,2,2,0,96,16,1,95
1.45,left,1,0.548,,,,,,,stim/both.png,stim/incongRight.png,left,180,999,001,2019-02-07_12h53.53.191,ANT,3.0.0b12,60,,,3,0,3,0,1,2,2,0,96,29,1,95
0.5,left,1,0.544,,,,,,,stim/both.png,stim/neutralLeft.png,left,0,999,001,2019-02-07_12h53.53.191,ANT,3.0.0b12,60,,,3,0,3,0,1,2,2,0,96,33,1,95
1.5,right,1,0.445,,,,,,,stim/centre.png,stim/congLeft.png,right,180,999,001,2019-02-07_12h53.53.191,ANT,3.0.0b12,60,,,3,0,3,0,1,2,2,0,96,6,1,95
0.55,left,1,0.547,,,,,,,stim/blank.png,stim/incongLeft.png,left,0,999,001,2019-02-07_12h53.53.191,ANT,3.0.0b12,60,,,3,0,3,0,1,2,2,0,96,19,1,95
1.55,left,1,0.54,,,,,,,stim/centre.png,stim/congLeft.png,left,0,999,001,2019-02-07_12h53.53.191,ANT,3.0.0b12,60,,,3,0,3,0,1,2,2,0,96,2,1,95
0.5,right,1,0.554,,,,,,,stim/lower.png,stim/incongLeft.png,right,180,999,001,2019-02-07_12h53.53.191,ANT,3.0.0b12,60,,,3,0,3,0,1,2,2,0,96,20,1,95
0.5,left,1,0.556,,,,,,,stim/both.png,stim/congLeft.png,left,0,999,001,2019-02-07_12h53.53.191,ANT,3.0.0b12,60,,,3,0,3,0,1,2,2,0,96,1,1,95
1.1,right,1,0.414,,,,,,,stim/both.png,stim/congLeft.png,right,180,999,001,2019-02-07_12h53.53.191,ANT,3.0.0b12,60,,,3,0,3,0,1,2,2,0,96,5,1,95
0.85,right,1,0.415,,,,,,,stim/blank.png,stim/congRight.png,right,0,999,001,2019-02-07_12h53.53.191,ANT,3.0.0b12,60,,,3,0,3,0,1,2,2,0,96,11,1,95
0.8,right,1,0.463,,,,,,,stim/centre.png,stim/incongRight.png,right,0,999,001,2019-02-07_12h53.53.191,ANT,3.0.0b12,60,,,3,0,3,0,1,2,2,0,96,26,1,95
0.65,left,1,0.452,,,,,,,stim/centre.png,stim/congRight.png,left,180,999,001,2019-02-07_12h53.53.191,ANT,3.0.0b12,60,,,3,0,3,0,1,2,2,0,96,14,1,95
0.65,left,1,0.528,,,,,,,stim/lower.png,stim/neutralRight.png,left,180,999,001,2019-02-07_12h53.53.191,ANT,3.0.0b12,60,,,3,0,3,0,1,2,2,0,96,44,1,95
0.95,right,1,0.448,,,,,,,stim/upper.png,stim/congRight.png,right,0,999,001,2019-02-07_12h53.53.191,ANT,3.0.0b12,60,,,3,0,3,0,1,2,2,0,96,8,1,95
0.7,left,1,0.525,,,,,,,stim/blank.png,stim/congLeft.png,left,0,999,001,2019-02-07_12h53.53.191,ANT,3.0.0b12,60,,,3,0,3,0,1,2,2,0,96,3,1,95
1.25,left,1,0.46,,,,,,,stim/both.png,stim/congRight.png,left,180,999,001,2019-02-07_12h53.53.191,ANT,3.0.0b12,60,,,3,0,3,0,1,2,2,0,96,13,1,95
0.45,right,1,0.496,,,,,,,stim/both.png,stim/neutralRight.png,right,0,999,001,2019-02-07_12h53.53.191,ANT,3.0.0b12,60,,,3,0,3,0,1,2,2,0,96,41,1,95
0.4,left,1,0.565,,,,,,,stim/centre.png,stim/incongLeft.png,left,0,999,001,2019-02-07_12h53.53.191,ANT,3.0.0b12,60,,,3,0,3,0,1,2,2,0,96,18,1,95
1,right,1,0.403,,,,,,,stim/lower.png,stim/congLeft.png,right,180,999,001,2019-02-07_12h53.53.191,ANT,3.0.0b12,60,,,3,0,3,0,1,2,2,0,96,4,1,95
0.7,left,1,0.512,,,,,,,stim/blank.png,stim/neutralLeft.png,left,0,999,001,2019-02-07_12h53.53.191,ANT,3.0.0b12,60,,,3,0,3,0,1,2,2,0,96,35,1,95
0.6,left,1,0.448,,,,,,,stim/centre.png,stim/neutralLeft.png,left,0,999,001,2019-02-07_12h53.53.191,ANT,3.0.0b12,60,,,3,0,3,0,1,2,2,0,96,34,1,95
1.15,left,0,0.428,,,,,,,stim/centre.png,stim/incongLeft.png,right,180,999,001,2019-02-07_12h53.53.191,ANT,3.0.0b12,60,,,3,0,3,0,1,2,2,0,96,22,1,95
1.55,right,1,0.417,,,,,,,stim/both.png,stim/congRight.png,right,0,999,001,2019-02-07_12h53.53.191,ANT,3.0.0b12,60,,,3,0,3,0,1,2,2,0,96,9,1,95
1.1,left,1,0.474,,,,,,,stim/lower.png,stim/congRight.png,left,180,999,001,2019-02-07_12h53.53.191,ANT,3.0.0b12,60,,,3,0,3,0,1,2,2,0,96,12,1,95
0.95,right,1,0.42,,,,,,,stim/both.png,stim/neutralLeft.png,right,180,999,001,2019-02-07_12h53.53.191,ANT,3.0.0b12,60,,,3,0,3,0,1,2,2,0,96,37,1,95
1.25,right,1,0.396,,,,,,,stim/centre.png,stim/congRight.png,right,0,999,001,2019-02-07_12h53.53.191,ANT,3.0.0b12,60,,,3,0,3,0,1,2,2,0,96,10,1,95
1,right,1,0.462,,,,,,,stim/blank.png,stim/neutralLeft.png,right,180,999,001,2019-02-07_12h53.53.191,ANT,3.0.0b12,60,,,3,0,3,0,1,2,2,0,96,39,1,95
0.85,left,1,0.478,,,,,,,stim/centre.png,stim/neutralRight.png,left,180,999,001,2019-02-07_12h53.53.191,ANT,3.0.0b12,60,,,3,0,3,0,1,2,2,0,96,46,1,95
1.15,left,1,0.48,,,,,,,stim/upper.png,stim/congLeft.png,left,0,999,001,2019-02-07_12h53.53.191,ANT,3.0.0b12,60,,,3,0,3,0,1,2,2,0,96,0,1,95
