fixDuration, resp.keys, resp.corr, resp.rt, instResp.keys, instResp.rt, pracLoop.thisRepN, pracLoop.thisTrialN, pracLoop.thisN, pracLoop.thisIndex, pracLoop.ran, pracLoop.order, cue, tar, corrAns, targOrientation, blockLoop.thisRepN, blockLoop.thisTrialN, blockLoop.thisN, blockLoop.thisIndex, blockLoop.ran, blockLoop.order, mainLoop.thisRepN, mainLoop.thisTrialN, mainLoop.thisN, mainLoop.thisIndex, mainLoop.ran, mainLoop.order, cue, tar, corrAns, targOrientation, mainLoop.thisRepN, mainLoop.thisTrialN, mainLoop.thisN, mainLoop.thisIndex, mainLoop.ran, mainLoop.order, cue, tar, corrAns, targOrientation, mainLoop.thisRepN, mainLoop.thisTrialN, mainLoop.thisN, mainLoop.thisIndex, mainLoop.ran, mainLoop.order, cue, tar, corrAns, targOrientation, participant, session, date, expName, psychopyVersion, frameRate
1.3500000000000008, right, 1, 1.3430000000000177, undefined, undefined, 1, 0, 48, 5, 1, 47, stim/both.png, stim/congLeft.png, right, 180, undefined, undefined, undefined, undefined, undefined, undefined, undefined, undefined, undefined, undefined, undefined, undefined, stim/both.png, stim/congLeft.png, right, 180, undefined, undefined, undefined, undefined, undefined, undefined, stim/both.png, stim/congLeft.png, right, 180, undefined, undefined, undefined, undefined, undefined, undefined, stim/both.png, stim/congLeft.png, right, 180, cs210_June, 001, 2019-02-11_12h19.49.940, ANT, 3.0.0b12, 60
0.45, right, 1, 1.2450000000000045, undefined, undefined, 1, 0, 48, 11, 1, 47, stim/blank.png, stim/congRight.png, right, 0, undefined, undefined, undefined, undefined, undefined, undefined, undefined, undefined, undefined, undefined, undefined, undefined, stim/blank.png, stim/congRight.png, right, 0, undefined, undefined, undefined, undefined, undefined, undefined, stim/blank.png, stim/congRight.png, right, 0, undefined, undefined, undefined, undefined, undefined, undefined, stim/blank.png, stim/congRight.png, right, 0, cs210_June, 001, 2019-02-11_12h19.49.940, ANT, 3.0.0b12, 60
1.1000000000000005, right, 1, 1.132000000000005, undefined, undefined, 1, 0, 48, 4, 1, 47, stim/lower.png, stim/congLeft.png, right, 180, undefined, undefined, undefined, undefined, undefined, undefined, undefined, undefined, undefined, undefined, undefined, undefined, stim/lower.png, stim/congLeft.png, right, 180, undefined, undefined, undefined, undefined, undefined, undefined, stim/lower.png, stim/congLeft.png, right, 180, undefined, undefined, undefined, undefined, undefined, undefined, stim/lower.png, stim/congLeft.png, right, 180, cs210_June, 001, 2019-02-11_12h19.49.940, ANT, 3.0.0b12, 60
0.5, right, 1, 1.0819999999999936, undefined, undefined, 1, 0, 48, 8, 1, 47, stim/upper.png, stim/congRight.png, right, 0, undefined, undefined, undefined, undefined, undefined, undefined, undefined, undefined, undefined, undefined, undefined, undefined, stim/upper.png, stim/congRight.png, right, 0, undefined, undefined, undefined, undefined, undefined, undefined, stim/upper.png, stim/congRight.png, right, 0, undefined, undefined, undefined, undefined, undefined, undefined, stim/upper.png, stim/congRight.png, right, 0, cs210_June, 001, 2019-02-11_12h19.49.940, ANT, 3.0.0b12, 60
0.55, right, 1, 1.2309999999999945, undefined, undefined, 1, 0, 48, 37, 1, 47, stim/both.png, stim/neutralLeft.png, right, 180, undefined, undefined, undefined, undefined, undefined, undefined, undefined, undefined, undefined, undefined, undefined, undefined, stim/both.png, stim/neutralLeft.png, right, 180, undefined, undefined, undefined, undefined, undefined, undefined, stim/both.png, stim/neutralLeft.png, right, 180, undefined, undefined, undefined, undefined, undefined, undefined, stim/both.png, stim/neutralLeft.png, right, 180, cs210_June, 001, 2019-02-11_12h19.49.940, ANT, 3.0.0b12, 60
1.3000000000000007, right, 1, 1.1610000000000014, undefined, undefined, 1, 0, 48, 10, 1, 47, stim/centre.png, stim/congRight.png, right, 0, undefined, undefined, undefined, undefined, undefined, undefined, undefined, undefined, undefined, undefined, undefined, undefined, stim/centre.png, stim/congRight.png, right, 0, undefined, undefined, undefined, undefined, undefined, undefined, stim/centre.png, stim/congRight.png, right, 0, undefined, undefined, undefined, undefined, undefined, undefined, stim/centre.png, stim/congRight.png, right, 0, cs210_June, 001, 2019-02-11_12h19.49.940, ANT, 3.0.0b12, 60
0.6000000000000001, right, 1, 1.1480000000000246, undefined, undefined, 1, 0, 48, 38, 1, 47, stim/centre.png, stim/neutralLeft.png, right, 180, undefined, undefined, undefined, undefined, undefined, undefined, undefined, undefined, undefined, undefined, undefined, undefined, stim/centre.png, stim/neutralLeft.png, right, 180, undefined, undefined, undefined, undefined, undefined, undefined, stim/centre.png, stim/neutralLeft.png, right, 180, undefined, undefined, undefined, undefined, undefined, undefined, stim/centre.png, stim/neutralLeft.png, right, 180, cs210_June, 001, 2019-02-11_12h19.49.940, ANT, 3.0.0b12, 60
1.550000000000001, right, 0, 1.2800000000000296, undefined, undefined, 1, 0, 48, 31, 1, 47, stim/blank.png, stim/incongRight.png, left, 180, undefined, undefined, undefined, undefined, undefined, undefined, undefined, undefined, undefined, undefined, undefined, undefined, stim/blank.png, stim/incongRight.png, left, 180, undefined, undefined, undefined, undefined, undefined, undefined, stim/blank.png, stim/incongRight.png, left, 180, undefined, undefined, undefined, undefined, undefined, undefined, stim/blank.png, stim/incongRight.png, left, 180, cs210_June, 001, 2019-02-11_12h19.49.940, ANT, 3.0.0b12, 60
0.8000000000000003, left, 0, 1.17999999999995, undefined, undefined, 1, 0, 48, 22, 1, 47, stim/centre.png, stim/incongLeft.png, right, 180, undefined, undefined, undefined, undefined, undefined, undefined, undefined, undefined, undefined, undefined, undefined, undefined, stim/centre.png, stim/incongLeft.png, right, 180, undefined, undefined, undefined, undefined, undefined, undefined, stim/centre.png, stim/incongLeft.png, right, 180, undefined, undefined, undefined, undefined, undefined, undefined, stim/centre.png, stim/incongLeft.png, right, 180, cs210_June, 001, 2019-02-11_12h19.49.940, ANT, 3.0.0b12, 60
0.9000000000000004, right, 1, 1.0819999999999936, undefined, undefined, 1, 0, 48, 41, 1, 47, stim/both.png, stim/neutralRight.png, right, 0, undefined, undefined, undefined, undefined, undefined, undefined, undefined, undefined, undefined, undefined, undefined, undefined, stim/both.png, stim/neutralRight.png, right, 0, undefined, undefined, undefined, undefined, undefined, undefined, stim/both.png, stim/neutralRight.png, right, 0, undefined, undefined, undefined, undefined, undefined, undefined, stim/both.png, stim/neutralRight.png, right, 0, cs210_June, 001, 2019-02-11_12h19.49.940, ANT, 3.0.0b12, 60
0.9500000000000004, left, 1, 1.11099999999999, undefined, undefined, 1, 0, 48, 3, 1, 47, stim/blank.png, stim/congLeft.png, left, 0, undefined, undefined, undefined, undefined, undefined, undefined, undefined, undefined, undefined, undefined, undefined, undefined, stim/blank.png, stim/congLeft.png, left, 0, undefined, undefined, undefined, undefined, undefined, undefined, stim/blank.png, stim/congLeft.png, left, 0, undefined, undefined, undefined, undefined, undefined, undefined, stim/blank.png, stim/congLeft.png, left, 0, cs210_June, 001, 2019-02-11_12h19.49.940, ANT, 3.0.0b12, 60
1.2000000000000006, right, 0, 1.233000000000004, undefined, undefined, 1, 0, 48, 17, 1, 47, stim/both.png, stim/incongLeft.png, left, 0, undefined, undefined, undefined, undefined, undefined, undefined, undefined, undefined, undefined, undefined, undefined, undefined, stim/both.png, stim/incongLeft.png, left, 0, undefined, undefined, undefined, undefined, undefined, undefined, stim/both.png, stim/incongLeft.png, left, 0, undefined, undefined, undefined, undefined, undefined, undefined, stim/both.png, stim/incongLeft.png, left, 0, cs210_June, 001, 2019-02-11_12h19.49.940, ANT, 3.0.0b12, 60
1.4000000000000008, left, 1, 1.1499999999999773, undefined, undefined, 1, 0, 48, 0, 1, 47, stim/upper.png, stim/congLeft.png, left, 0, undefined, undefined, undefined, undefined, undefined, undefined, undefined, undefined, undefined, undefined, undefined, undefined, stim/upper.png, stim/congLeft.png, left, 0, undefined, undefined, undefined, undefined, undefined, undefined, stim/upper.png, stim/congLeft.png, left, 0, undefined, undefined, undefined, undefined, undefined, undefined, stim/upper.png, stim/congLeft.png, left, 0, cs210_June, 001, 2019-02-11_12h19.49.940, ANT, 3.0.0b12, 60
1.4000000000000008, left, 1, 1.214999999999975, undefined, undefined, 1, 0, 48, 13, 1, 47, stim/both.png, stim/congRight.png, left, 180, undefined, undefined, undefined, undefined, undefined, undefined, undefined, undefined, undefined, undefined, undefined, undefined, stim/both.png, stim/congRight.png, left, 180, undefined, undefined, undefined, undefined, undefined, undefined, stim/both.png, stim/congRight.png, left, 180, undefined, undefined, undefined, undefined, undefined, undefined, stim/both.png, stim/congRight.png, left, 180, cs210_June, 001, 2019-02-11_12h19.49.940, ANT, 3.0.0b12, 60
0.55, right, 1, 1.4440000000000168, undefined, undefined, 1, 0, 48, 20, 1, 47, stim/lower.png, stim/incongLeft.png, right, 180, undefined, undefined, undefined, undefined, undefined, undefined, undefined, undefined, undefined, undefined, undefined, undefined, stim/lower.png, stim/incongLeft.png, right, 180, undefined, undefined, undefined, undefined, undefined, undefined, stim/lower.png, stim/incongLeft.png, right, 180, undefined, undefined, undefined, undefined, undefined, undefined, stim/lower.png, stim/incongLeft.png, right, 180, cs210_June, 001, 2019-02-11_12h19.49.940, ANT, 3.0.0b12, 60
0.6500000000000001, left, 1, 1.0640000000000214, undefined, undefined, 1, 0, 48, 44, 1, 47, stim/lower.png, stim/neutralRight.png, left, 180, undefined, undefined, undefined, undefined, undefined, undefined, undefined, undefined, undefined, undefined, undefined, undefined, stim/lower.png, stim/neutralRight.png, left, 180, undefined, undefined, undefined, undefined, undefined, undefined, stim/lower.png, stim/neutralRight.png, left, 180, undefined, undefined, undefined, undefined, undefined, undefined, stim/lower.png, stim/neutralRight.png, left, 180, cs210_June, 001, 2019-02-11_12h19.49.940, ANT, 3.0.0b12, 60
0.9000000000000004, left, 1, 1.115000000000009, undefined, undefined, 1, 0, 48, 16, 1, 47, stim/upper.png, stim/incongLeft.png, left, 0, undefined, undefined, undefined, undefined, undefined, undefined, undefined, undefined, undefined, undefined, undefined, undefined, stim/upper.png, stim/incongLeft.png, left, 0, undefined, undefined, undefined, undefined, undefined, undefined, stim/upper.png, stim/incongLeft.png, left, 0, undefined, undefined, undefined, undefined, undefined, undefined, stim/upper.png, stim/incongLeft.png, left, 0, cs210_June, 001, 2019-02-11_12h19.49.940, ANT, 3.0.0b12, 60
0.9000000000000004, left, 1, 1.9460000000000264, undefined, undefined, 1, 0, 48, 14, 1, 47, stim/centre.png, stim/congRight.png, left, 180, undefined, undefined, undefined, undefined, undefined, undefined, undefined, undefined, undefined, undefined, undefined, undefined, stim/centre.png, stim/congRight.png, left, 180, undefined, undefined, undefined, undefined, undefined, undefined, stim/centre.png, stim/congRight.png, left, 180, undefined, undefined, undefined, undefined, undefined, undefined, stim/centre.png, stim/congRight.png, left, 180, cs210_June, 001, 2019-02-11_12h19.49.940, ANT, 3.0.0b12, 60
0.55, right, 1, 1.1159999999999854, undefined, undefined, 1, 0, 48, 7, 1, 47, stim/blank.png, stim/congLeft.png, right, 180, undefined, undefined, undefined, undefined, undefined, undefined, undefined, undefined, undefined, undefined, undefined, undefined, stim/blank.png, stim/congLeft.png, right, 180, undefined, undefined, undefined, undefined, undefined, undefined, stim/blank.png, stim/congLeft.png, right, 180, undefined, undefined, undefined, undefined, undefined, undefined, stim/blank.png, stim/congLeft.png, right, 180, cs210_June, 001, 2019-02-11_12h19.49.940, ANT, 3.0.0b12, 60
1.4500000000000008, right, 1, 1.0980000000000132, undefined, undefined, 1, 0, 48, 36, 1, 47, stim/lower.png, stim/neutralLeft.png, right, 180, undefined, undefined, undefined, undefined, undefined, undefined, undefined, undefined, undefined, undefined, undefined, undefined, stim/lower.png, stim/neutralLeft.png, right, 180, undefined, undefined, undefined, undefined, undefined, undefined, stim/lower.png, stim/neutralLeft.png, right, 180, undefined, undefined, undefined, undefined, undefined, undefined, stim/lower.png, stim/neutralLeft.png, right, 180, cs210_June, 001, 2019-02-11_12h19.49.940, ANT, 3.0.0b12, 60
1.2500000000000007, left, 1, 0.9970000000000141, undefined, undefined, 1, 0, 48, 47, 1, 47, stim/blank.png, stim/neutralRight.png, left, 180, undefined, undefined, undefined, undefined, undefined, undefined, undefined, undefined, undefined, undefined, undefined, undefined, stim/blank.png, stim/neutralRight.png, left, 180, undefined, undefined, undefined, undefined, undefined, undefined, stim/blank.png, stim/neutralRight.png, left, 180, undefined, undefined, undefined, undefined, undefined, undefined, stim/blank.png, stim/neutralRight.png, left, 180, cs210_June, 001, 2019-02-11_12h19.49.940, ANT, 3.0.0b12, 60
1.0500000000000005, left, 1, 1.531000000000006, undefined, undefined, 1, 0, 48, 45, 1, 47, stim/both.png, stim/neutralRight.png, left, 180, undefined, undefined, undefined, undefined, undefined, undefined, undefined, undefined, undefined, undefined, undefined, undefined, stim/both.png, stim/neutralRight.png, left, 180, undefined, undefined, undefined, undefined, undefined, undefined, stim/both.png, stim/neutralRight.png, left, 180, undefined, undefined, undefined, undefined, undefined, undefined, stim/both.png, stim/neutralRight.png, left, 180, cs210_June, 001, 2019-02-11_12h19.49.940, ANT, 3.0.0b12, 60
0.45, right, 1, 1.1329999999999814, undefined, undefined, 1, 0, 48, 25, 1, 47, stim/both.png, stim/incongRight.png, right, 0, undefined, undefined, undefined, undefined, undefined, undefined, undefined, undefined, undefined, undefined, undefined, undefined, stim/both.png, stim/incongRight.png, right, 0, undefined, undefined, undefined, undefined, undefined, undefined, stim/both.png, stim/incongRight.png, right, 0, undefined, undefined, undefined, undefined, undefined, undefined, stim/both.png, stim/incongRight.png, right, 0, cs210_June, 001, 2019-02-11_12h19.49.940, ANT, 3.0.0b12, 60
0.8000000000000003, right, 1, 1.09699999999998, undefined, undefined, 1, 0, 48, 9, 1, 47, stim/both.png, stim/congRight.png, right, 0, undefined, undefined, undefined, undefined, undefined, undefined, undefined, undefined, undefined, undefined, undefined, undefined, stim/both.png, stim/congRight.png, right, 0, undefined, undefined, undefined, undefined, undefined, undefined, stim/both.png, stim/congRight.png, right, 0, undefined, undefined, undefined, undefined, undefined, undefined, stim/both.png, stim/congRight.png, right, 0, cs210_June, 001, 2019-02-11_12h19.49.940, ANT, 3.0.0b12, 60
1.3500000000000008, left, 1, 1.031000000000006, undefined, undefined, 1, 0, 48, 18, 1, 47, stim/centre.png, stim/incongLeft.png, left, 0, undefined, undefined, undefined, undefined, undefined, undefined, undefined, undefined, undefined, undefined, undefined, undefined, stim/centre.png, stim/incongLeft.png, left, 0, undefined, undefined, undefined, undefined, undefined, undefined, stim/centre.png, stim/incongLeft.png, left, 0, undefined, undefined, undefined, undefined, undefined, undefined, stim/centre.png, stim/incongLeft.png, left, 0, cs210_June, 001, 2019-02-11_12h19.49.940, ANT, 3.0.0b12, 60
1.4500000000000008, left, 1, 1.0989999999999895, undefined, undefined, 1, 0, 48, 32, 1, 47, stim/upper.png, stim/neutralLeft.png, left, 0, undefined, undefined, undefined, undefined, undefined, undefined, undefined, undefined, undefined, undefined, undefined, undefined, stim/upper.png, stim/neutralLeft.png, left, 0, undefined, undefined, undefined, undefined, undefined, undefined, stim/upper.png, stim/neutralLeft.png, left, 0, undefined, undefined, undefined, undefined, undefined, undefined, stim/upper.png, stim/neutralLeft.png, left, 0, cs210_June, 001, 2019-02-11_12h19.49.940, ANT, 3.0.0b12, 60
0.7000000000000002, left, 1, 0.9979999999999905, undefined, undefined, 1, 0, 48, 33, 1, 47, stim/both.png, stim/neutralLeft.png, left, 0, undefined, undefined, undefined, undefined, undefined, undefined, undefined, undefined, undefined, undefined, undefined, undefined, stim/both.png, stim/neutralLeft.png, left, 0, undefined, undefined, undefined, undefined, undefined, undefined, stim/both.png, stim/neutralLeft.png, left, 0, undefined, undefined, undefined, undefined, undefined, undefined, stim/both.png, stim/neutralLeft.png, left, 0, cs210_June, 001, 2019-02-11_12h19.49.940, ANT, 3.0.0b12, 60
1.4000000000000008, left, 1, 1.01400000000001, undefined, undefined, 1, 0, 48, 12, 1, 47, stim/lower.png, stim/congRight.png, left, 180, undefined, undefined, undefined, undefined, undefined, undefined, undefined, undefined, undefined, undefined, undefined, undefined, stim/lower.png, stim/congRight.png, left, 180, undefined, undefined, undefined, undefined, undefined, undefined, stim/lower.png, stim/congRight.png, left, 180, undefined, undefined, undefined, undefined, undefined, undefined, stim/lower.png, stim/congRight.png, left, 180, cs210_June, 001, 2019-02-11_12h19.49.940, ANT, 3.0.0b12, 60
1.0000000000000004, left, 1, 1.0219999999999914, undefined, undefined, 1, 0, 48, 2, 1, 47, stim/centre.png, stim/congLeft.png, left, 0, undefined, undefined, undefined, undefined, undefined, undefined, undefined, undefined, undefined, undefined, undefined, undefined, stim/centre.png, stim/congLeft.png, left, 0, undefined, undefined, undefined, undefined, undefined, undefined, stim/centre.png, stim/congLeft.png, left, 0, undefined, undefined, undefined, undefined, undefined, undefined, stim/centre.png, stim/congLeft.png, left, 0, cs210_June, 001, 2019-02-11_12h19.49.940, ANT, 3.0.0b12, 60
1.3500000000000008, right, 1, 1.0470000000000255, undefined, undefined, 1, 0, 48, 43, 1, 47, stim/blank.png, stim/neutralRight.png, right, 0, undefined, undefined, undefined, undefined, undefined, undefined, undefined, undefined, undefined, undefined, undefined, undefined, stim/blank.png, stim/neutralRight.png, right, 0, undefined, undefined, undefined, undefined, undefined, undefined, stim/blank.png, stim/neutralRight.png, right, 0, undefined, undefined, undefined, undefined, undefined, undefined, stim/blank.png, stim/neutralRight.png, right, 0, cs210_June, 001, 2019-02-11_12h19.49.940, ANT, 3.0.0b12, 60
0.45, left, 1, 1.113999999999976, undefined, undefined, 1, 0, 48, 15, 1, 47, stim/blank.png, stim/congRight.png, left, 180, undefined, undefined, undefined, undefined, undefined, undefined, undefined, undefined, undefined, undefined, undefined, undefined, stim/blank.png, stim/congRight.png, left, 180, undefined, undefined, undefined, undefined, undefined, undefined, stim/blank.png, stim/congRight.png, left, 180, undefined, undefined, undefined, undefined, undefined, undefined, stim/blank.png, stim/congRight.png, left, 180, cs210_June, 001, 2019-02-11_12h19.49.940, ANT, 3.0.0b12, 60
1.0000000000000004, left, 1, 1.0300000000000296, undefined, undefined, 1, 0, 48, 35, 1, 47, stim/blank.png, stim/neutralLeft.png, left, 0, undefined, undefined, undefined, undefined, undefined, undefined, undefined, undefined, undefined, undefined, undefined, undefined, stim/blank.png, stim/neutralLeft.png, left, 0, undefined, undefined, undefined, undefined, undefined, undefined, stim/blank.png, stim/neutralLeft.png, left, 0, undefined, undefined, undefined, undefined, undefined, undefined, stim/blank.png, stim/neutralLeft.png, left, 0, cs210_June, 001, 2019-02-11_12h19.49.940, ANT, 3.0.0b12, 60
1.3500000000000008, left, 1, 1.2969999999999686, undefined, undefined, 1, 0, 48, 19, 1, 47, stim/blank.png, stim/incongLeft.png, left, 0, undefined, undefined, undefined, undefined, undefined, undefined, undefined, undefined, undefined, undefined, undefined, undefined, stim/blank.png, stim/incongLeft.png, left, 0, undefined, undefined, undefined, undefined, undefined, undefined, stim/blank.png, stim/incongLeft.png, left, 0, undefined, undefined, undefined, undefined, undefined, undefined, stim/blank.png, stim/incongLeft.png, left, 0, cs210_June, 001, 2019-02-11_12h19.49.940, ANT, 3.0.0b12, 60
0.9500000000000004, left, 1, 0.9800000000000182, undefined, undefined, 1, 0, 48, 34, 1, 47, stim/centre.png, stim/neutralLeft.png, left, 0, undefined, undefined, undefined, undefined, undefined, undefined, undefined, undefined, undefined, undefined, undefined, undefined, stim/centre.png, stim/neutralLeft.png, left, 0, undefined, undefined, undefined, undefined, undefined, undefined, stim/centre.png, stim/neutralLeft.png, left, 0, undefined, undefined, undefined, undefined, undefined, undefined, stim/centre.png, stim/neutralLeft.png, left, 0, cs210_June, 001, 2019-02-11_12h19.49.940, ANT, 3.0.0b12, 60
0.4, left, 1, 1.0980000000000132, undefined, undefined, 1, 0, 48, 29, 1, 47, stim/both.png, stim/incongRight.png, left, 180, undefined, undefined, undefined, undefined, undefined, undefined, undefined, undefined, undefined, undefined, undefined, undefined, stim/both.png, stim/incongRight.png, left, 180, undefined, undefined, undefined, undefined, undefined, undefined, stim/both.png, stim/incongRight.png, left, 180, undefined, undefined, undefined, undefined, undefined, undefined, stim/both.png, stim/incongRight.png, left, 180, cs210_June, 001, 2019-02-11_12h19.49.940, ANT, 3.0.0b12, 60
0.9500000000000004, right, 1, 1.1480000000000246, undefined, undefined, 1, 0, 48, 21, 1, 47, stim/both.png, stim/incongLeft.png, right, 180, undefined, undefined, undefined, undefined, undefined, undefined, undefined, undefined, undefined, undefined, undefined, undefined, stim/both.png, stim/incongLeft.png, right, 180, undefined, undefined, undefined, undefined, undefined, undefined, stim/both.png, stim/incongLeft.png, right, 180, undefined, undefined, undefined, undefined, undefined, undefined, stim/both.png, stim/incongLeft.png, right, 180, cs210_June, 001, 2019-02-11_12h19.49.940, ANT, 3.0.0b12, 60
0.9000000000000004, left, 1, 1.1479999999999677, undefined, undefined, 1, 0, 48, 46, 1, 47, stim/centre.png, stim/neutralRight.png, left, 180, undefined, undefined, undefined, undefined, undefined, undefined, undefined, undefined, undefined, undefined, undefined, undefined, stim/centre.png, stim/neutralRight.png, left, 180, undefined, undefined, undefined, undefined, undefined, undefined, stim/centre.png, stim/neutralRight.png, left, 180, undefined, undefined, undefined, undefined, undefined, undefined, stim/centre.png, stim/neutralRight.png, left, 180, cs210_June, 001, 2019-02-11_12h19.49.940, ANT, 3.0.0b12, 60
1.1500000000000006, right, 1, 1.146000000000015, undefined, undefined, 1, 0, 48, 23, 1, 47, stim/blank.png, stim/incongLeft.png, right, 180, undefined, undefined, undefined, undefined, undefined, undefined, undefined, undefined, undefined, undefined, undefined, undefined, stim/blank.png, stim/incongLeft.png, right, 180, undefined, undefined, undefined, undefined, undefined, undefined, stim/blank.png, stim/incongLeft.png, right, 180, undefined, undefined, undefined, undefined, undefined, undefined, stim/blank.png, stim/incongLeft.png, right, 180, cs210_June, 001, 2019-02-11_12h19.49.940, ANT, 3.0.0b12, 60
0.8500000000000003, right, 1, 1.031000000000006, undefined, undefined, 1, 0, 48, 6, 1, 47, stim/centre.png, stim/congLeft.png, right, 180, undefined, undefined, undefined, undefined, undefined, undefined, undefined, undefined, undefined, undefined, undefined, undefined, stim/centre.png, stim/congLeft.png, right, 180, undefined, undefined, undefined, undefined, undefined, undefined, stim/centre.png, stim/congLeft.png, right, 180, undefined, undefined, undefined, undefined, undefined, undefined, stim/centre.png, stim/congLeft.png, right, 180, cs210_June, 001, 2019-02-11_12h19.49.940, ANT, 3.0.0b12, 60
1.0000000000000004, left, 1, 1.0480000000000018, undefined, undefined, 1, 0, 48, 1, 1, 47, stim/both.png, stim/congLeft.png, left, 0, undefined, undefined, undefined, undefined, undefined, undefined, undefined, undefined, undefined, undefined, undefined, undefined, stim/both.png, stim/congLeft.png, left, 0, undefined, undefined, undefined, undefined, undefined, undefined, stim/both.png, stim/congLeft.png, left, 0, undefined, undefined, undefined, undefined, undefined, undefined, stim/both.png, stim/congLeft.png, left, 0, cs210_June, 001, 2019-02-11_12h19.49.940, ANT, 3.0.0b12, 60
0.4, right, 1, 1.0960000000000036, undefined, undefined, 1, 0, 48, 24, 1, 47, stim/upper.png, stim/incongRight.png, right, 0, undefined, undefined, undefined, undefined, undefined, undefined, undefined, undefined, undefined, undefined, undefined, undefined, stim/upper.png, stim/incongRight.png, right, 0, undefined, undefined, undefined, undefined, undefined, undefined, stim/upper.png, stim/incongRight.png, right, 0, undefined, undefined, undefined, undefined, undefined, undefined, stim/upper.png, stim/incongRight.png, right, 0, cs210_June, 001, 2019-02-11_12h19.49.940, ANT, 3.0.0b12, 60
1.2000000000000006, right, 1, 1.0790000000000077, undefined, undefined, 1, 0, 48, 26, 1, 47, stim/centre.png, stim/incongRight.png, right, 0, undefined, undefined, undefined, undefined, undefined, undefined, undefined, undefined, undefined, undefined, undefined, undefined, stim/centre.png, stim/incongRight.png, right, 0, undefined, undefined, undefined, undefined, undefined, undefined, stim/centre.png, stim/incongRight.png, right, 0, undefined, undefined, undefined, undefined, undefined, undefined, stim/centre.png, stim/incongRight.png, right, 0, cs210_June, 001, 2019-02-11_12h19.49.940, ANT, 3.0.0b12, 60
1.2000000000000006, right, 1, 1.0639999999999645, undefined, undefined, 1, 0, 48, 40, 1, 47, stim/upper.png, stim/neutralRight.png, right, 0, undefined, undefined, undefined, undefined, undefined, undefined, undefined, undefined, undefined, undefined, undefined, undefined, stim/upper.png, stim/neutralRight.png, right, 0, undefined, undefined, undefined, undefined, undefined, undefined, stim/upper.png, stim/neutralRight.png, right, 0, undefined, undefined, undefined, undefined, undefined, undefined, stim/upper.png, stim/neutralRight.png, right, 0, cs210_June, 001, 2019-02-11_12h19.49.940, ANT, 3.0.0b12, 60
0.5, right, 1, 1.031000000000006, undefined, undefined, 1, 0, 48, 42, 1, 47, stim/centre.png, stim/neutralRight.png, right, 0, undefined, undefined, undefined, undefined, undefined, undefined, undefined, undefined, undefined, undefined, undefined, undefined, stim/centre.png, stim/neutralRight.png, right, 0, undefined, undefined, undefined, undefined, undefined, undefined, stim/centre.png, stim/neutralRight.png, right, 0, undefined, undefined, undefined, undefined, undefined, undefined, stim/centre.png, stim/neutralRight.png, right, 0, cs210_June, 001, 2019-02-11_12h19.49.940, ANT, 3.0.0b12, 60
1.0000000000000004, right, 0, 0.9959999999999809, undefined, undefined, 1, 0, 48, 30, 1, 47, stim/centre.png, stim/incongRight.png, left, 180, undefined, undefined, undefined, undefined, undefined, undefined, undefined, undefined, undefined, undefined, undefined, undefined, stim/centre.png, stim/incongRight.png, left, 180, undefined, undefined, undefined, undefined, undefined, undefined, stim/centre.png, stim/incongRight.png, left, 180, undefined, undefined, undefined, undefined, undefined, undefined, stim/centre.png, stim/incongRight.png, left, 180, cs210_June, 001, 2019-02-11_12h19.49.940, ANT, 3.0.0b12, 60
1.2500000000000007, right, 1, 1.0979999999999563, undefined, undefined, 1, 0, 48, 27, 1, 47, stim/blank.png, stim/incongRight.png, right, 0, undefined, undefined, undefined, undefined, undefined, undefined, undefined, undefined, undefined, undefined, undefined, undefined, stim/blank.png, stim/incongRight.png, right, 0, undefined, undefined, undefined, undefined, undefined, undefined, stim/blank.png, stim/incongRight.png, right, 0, undefined, undefined, undefined, undefined, undefined, undefined, stim/blank.png, stim/incongRight.png, right, 0, cs210_June, 001, 2019-02-11_12h19.49.940, ANT, 3.0.0b12, 60
0.9000000000000004, right, 1, 1.031000000000006, undefined, undefined, 1, 0, 48, 39, 1, 47, stim/blank.png, stim/neutralLeft.png, right, 180, undefined, undefined, undefined, undefined, undefined, undefined, undefined, undefined, undefined, undefined, undefined, undefined, stim/blank.png, stim/neutralLeft.png, right, 180, undefined, undefined, undefined, undefined, undefined, undefined, stim/blank.png, stim/neutralLeft.png, right, 180, undefined, undefined, undefined, undefined, undefined, undefined, stim/blank.png, stim/neutralLeft.png, right, 180, cs210_June, 001, 2019-02-11_12h19.49.940, ANT, 3.0.0b12, 60
1.4000000000000008, right, 0, 1.0980000000000132, undefined, undefined, 1, 0, 48, 28, 1, 47, stim/lower.png, stim/incongRight.png, left, 180, undefined, undefined, undefined, undefined, undefined, undefined, undefined, undefined, undefined, undefined, undefined, undefined, stim/lower.png, stim/incongRight.png, left, 180, undefined, undefined, undefined, undefined, undefined, undefined, stim/lower.png, stim/incongRight.png, left, 180, undefined, undefined, undefined, undefined, undefined, undefined, stim/lower.png, stim/incongRight.png, left, 180, cs210_June, 001, 2019-02-11_12h19.49.940, ANT, 3.0.0b12, 60
0.7500000000000002, right, 1, 1.031000000000006, space, 20.394999999999982, undefined, undefined, undefined, undefined, undefined, undefined, stim/both.png, stim/neutralRight.png, right, 0, 3, 0, 3, 0, 1, 2, 2, 0, 96, 41, 1, 95, stim/both.png, stim/neutralRight.png, right, 0, 2, 0, 96, 41, 1, 95, stim/both.png, stim/neutralRight.png, right, 0, 2, 0, 96, 41, 1, 95, stim/both.png, stim/neutralRight.png, right, 0, cs210_June, 001, 2019-02-11_12h19.49.940, ANT, 3.0.0b12, 60
0.5, right, 0, 1.0989999999999895, undefined, undefined, undefined, undefined, undefined, undefined, undefined, undefined, stim/both.png, stim/neutralLeft.png, left, 0, 3, 0, 3, 0, 1, 2, 2, 0, 96, 33, 1, 95, stim/both.png, stim/neutralLeft.png, left, 0, 2, 0, 96, 33, 1, 95, stim/both.png, stim/neutralLeft.png, left, 0, 2, 0, 96, 33, 1, 95, stim/both.png, stim/neutralLeft.png, left, 0, cs210_June, 001, 2019-02-11_12h19.49.940, ANT, 3.0.0b12, 60
1.4000000000000008, right, 1, 1.0649999999999977, undefined, undefined, undefined, undefined, undefined, undefined, undefined, undefined, stim/lower.png, stim/congLeft.png, right, 180, 3, 0, 3, 0, 1, 2, 2, 0, 96, 4, 1, 95, stim/lower.png, stim/congLeft.png, right, 180, 2, 0, 96, 4, 1, 95, stim/lower.png, stim/congLeft.png, right, 180, 2, 0, 96, 4, 1, 95, stim/lower.png, stim/congLeft.png, right, 180, cs210_June, 001, 2019-02-11_12h19.49.940, ANT, 3.0.0b12, 60
0.7500000000000002, left, 1, 0.9770000000000323, undefined, undefined, undefined, undefined, undefined, undefined, undefined, undefined, stim/centre.png, stim/neutralLeft.png, left, 0, 3, 0, 3, 0, 1, 2, 2, 0, 96, 34, 1, 95, stim/centre.png, stim/neutralLeft.png, left, 0, 2, 0, 96, 34, 1, 95, stim/centre.png, stim/neutralLeft.png, left, 0, 2, 0, 96, 34, 1, 95, stim/centre.png, stim/neutralLeft.png, left, 0, cs210_June, 001, 2019-02-11_12h19.49.940, ANT, 3.0.0b12, 60
1.2000000000000006, right, 1, 1.0459999999999923, undefined, undefined, undefined, undefined, undefined, undefined, undefined, undefined, stim/both.png, stim/neutralLeft.png, right, 180, 3, 0, 3, 0, 1, 2, 2, 0, 96, 37, 1, 95, stim/both.png, stim/neutralLeft.png, right, 180, 2, 0, 96, 37, 1, 95, stim/both.png, stim/neutralLeft.png, right, 180, 2, 0, 96, 37, 1, 95, stim/both.png, stim/neutralLeft.png, right, 180, cs210_June, 001, 2019-02-11_12h19.49.940, ANT, 3.0.0b12, 60
0.6500000000000001, left, 1, 1.1309999999999718, undefined, undefined, undefined, undefined, undefined, undefined, undefined, undefined, stim/both.png, stim/neutralRight.png, left, 180, 3, 0, 3, 0, 1, 2, 2, 0, 96, 45, 1, 95, stim/both.png, stim/neutralRight.png, left, 180, 2, 0, 96, 45, 1, 95, stim/both.png, stim/neutralRight.png, left, 180, 2, 0, 96, 45, 1, 95, stim/both.png, stim/neutralRight.png, left, 180, cs210_June, 001, 2019-02-11_12h19.49.940, ANT, 3.0.0b12, 60
0.7500000000000002, left, 1, 1.031000000000006, undefined, undefined, undefined, undefined, undefined, undefined, undefined, undefined, stim/centre.png, stim/neutralRight.png, left, 180, 3, 0, 3, 0, 1, 2, 2, 0, 96, 46, 1, 95, stim/centre.png, stim/neutralRight.png, left, 180, 2, 0, 96, 46, 1, 95, stim/centre.png, stim/neutralRight.png, left, 180, 2, 0, 96, 46, 1, 95, stim/centre.png, stim/neutralRight.png, left, 180, cs210_June, 001, 2019-02-11_12h19.49.940, ANT, 3.0.0b12, 60
1.3000000000000007, right, 1, 1.1119999999999663, undefined, undefined, undefined, undefined, undefined, undefined, undefined, undefined, stim/lower.png, stim/incongLeft.png, right, 180, 3, 0, 3, 0, 1, 2, 2, 0, 96, 20, 1, 95, stim/lower.png, stim/incongLeft.png, right, 180, 2, 0, 96, 20, 1, 95, stim/lower.png, stim/incongLeft.png, right, 180, 2, 0, 96, 20, 1, 95, stim/lower.png, stim/incongLeft.png, right, 180, cs210_June, 001, 2019-02-11_12h19.49.940, ANT, 3.0.0b12, 60
1.2500000000000007, left, 1, 0.9959999999999809, undefined, undefined, undefined, undefined, undefined, undefined, undefined, undefined, stim/upper.png, stim/congLeft.png, left, 0, 3, 0, 3, 0, 1, 2, 2, 0, 96, 0, 1, 95, stim/upper.png, stim/congLeft.png, left, 0, 2, 0, 96, 0, 1, 95, stim/upper.png, stim/congLeft.png, left, 0, 2, 0, 96, 0, 1, 95, stim/upper.png, stim/congLeft.png, left, 0, cs210_June, 001, 2019-02-11_12h19.49.940, ANT, 3.0.0b12, 60
1.2500000000000007, left, 1, 1.0649999999999977, undefined, undefined, undefined, undefined, undefined, undefined, undefined, undefined, stim/lower.png, stim/neutralRight.png, left, 180, 3, 0, 3, 0, 1, 2, 2, 0, 96, 44, 1, 95, stim/lower.png, stim/neutralRight.png, left, 180, 2, 0, 96, 44, 1, 95, stim/lower.png, stim/neutralRight.png, left, 180, 2, 0, 96, 44, 1, 95, stim/lower.png, stim/neutralRight.png, left, 180, cs210_June, 001, 2019-02-11_12h19.49.940, ANT, 3.0.0b12, 60
1.3500000000000008, right, 1, 1.0970000000000368, undefined, undefined, undefined, undefined, undefined, undefined, undefined, undefined, stim/centre.png, stim/incongRight.png, right, 0, 3, 0, 3, 0, 1, 2, 2, 0, 96, 26, 1, 95, stim/centre.png, stim/incongRight.png, right, 0, 2, 0, 96, 26, 1, 95, stim/centre.png, stim/incongRight.png, right, 0, 2, 0, 96, 26, 1, 95, stim/centre.png, stim/incongRight.png, right, 0, cs210_June, 001, 2019-02-11_12h19.49.940, ANT, 3.0.0b12, 60
0.9000000000000004, left, 1, 1.1790000000000305, undefined, undefined, undefined, undefined, undefined, undefined, undefined, undefined, stim/blank.png, stim/incongRight.png, left, 180, 3, 0, 3, 0, 1, 2, 2, 0, 96, 31, 1, 95, stim/blank.png, stim/incongRight.png, left, 180, 2, 0, 96, 31, 1, 95, stim/blank.png, stim/incongRight.png, left, 180, 2, 0, 96, 31, 1, 95, stim/blank.png, stim/incongRight.png, left, 180, cs210_June, 001, 2019-02-11_12h19.49.940, ANT, 3.0.0b12, 60
0.9500000000000004, right, 1, 1.0779999999999745, undefined, undefined, undefined, undefined, undefined, undefined, undefined, undefined, stim/centre.png, stim/congLeft.png, right, 180, 3, 0, 3, 0, 1, 2, 2, 0, 96, 6, 1, 95, stim/centre.png, stim/congLeft.png, right, 180, 2, 0, 96, 6, 1, 95, stim/centre.png, stim/congLeft.png, right, 180, 2, 0, 96, 6, 1, 95, stim/centre.png, stim/congLeft.png, right, 180, cs210_June, 001, 2019-02-11_12h19.49.940, ANT, 3.0.0b12, 60
1.4500000000000008, left, 1, 0.9470000000000027, undefined, undefined, undefined, undefined, undefined, undefined, undefined, undefined, stim/centre.png, stim/congLeft.png, left, 0, 3, 0, 3, 0, 1, 2, 2, 0, 96, 2, 1, 95, stim/centre.png, stim/congLeft.png, left, 0, 2, 0, 96, 2, 1, 95, stim/centre.png, stim/congLeft.png, left, 0, 2, 0, 96, 2, 1, 95, stim/centre.png, stim/congLeft.png, left, 0, cs210_June, 001, 2019-02-11_12h19.49.940, ANT, 3.0.0b12, 60
1.1500000000000006, right, 1, 0.9629999999999654, undefined, undefined, undefined, undefined, undefined, undefined, undefined, undefined, stim/centre.png, stim/congRight.png, right, 0, 3, 0, 3, 0, 1, 2, 2, 0, 96, 10, 1, 95, stim/centre.png, stim/congRight.png, right, 0, 2, 0, 96, 10, 1, 95, stim/centre.png, stim/congRight.png, right, 0, 2, 0, 96, 10, 1, 95, stim/centre.png, stim/congRight.png, right, 0, cs210_June, 001, 2019-02-11_12h19.49.940, ANT, 3.0.0b12, 60
0.8500000000000003, left, 1, 0.9969999999999573, undefined, undefined, undefined, undefined, undefined, undefined, undefined, undefined, stim/blank.png, stim/congLeft.png, left, 0, 3, 0, 3, 0, 1, 2, 2, 0, 96, 3, 1, 95, stim/blank.png, stim/congLeft.png, left, 0, 2, 0, 96, 3, 1, 95, stim/blank.png, stim/congLeft.png, left, 0, 2, 0, 96, 3, 1, 95, stim/blank.png, stim/congLeft.png, left, 0, cs210_June, 001, 2019-02-11_12h19.49.940, ANT, 3.0.0b12, 60
1.3000000000000007, right, 1, 1.0319999999999823, undefined, undefined, undefined, undefined, undefined, undefined, undefined, undefined, stim/blank.png, stim/incongRight.png, right, 0, 3, 0, 3, 0, 1, 2, 2, 0, 96, 27, 1, 95, stim/blank.png, stim/incongRight.png, right, 0, 2, 0, 96, 27, 1, 95, stim/blank.png, stim/incongRight.png, right, 0, 2, 0, 96, 27, 1, 95, stim/blank.png, stim/incongRight.png, right, 0, cs210_June, 001, 2019-02-11_12h19.49.940, ANT, 3.0.0b12, 60
1.1000000000000005, left, 1, 1.0639999999999645, undefined, undefined, undefined, undefined, undefined, undefined, undefined, undefined, stim/upper.png, stim/incongLeft.png, left, 0, 3, 0, 3, 0, 1, 2, 2, 0, 96, 16, 1, 95, stim/upper.png, stim/incongLeft.png, left, 0, 2, 0, 96, 16, 1, 95, stim/upper.png, stim/incongLeft.png, left, 0, 2, 0, 96, 16, 1, 95, stim/upper.png, stim/incongLeft.png, left, 0, cs210_June, 001, 2019-02-11_12h19.49.940, ANT, 3.0.0b12, 60
1.3000000000000007, left, 1, 0.9630000000000223, undefined, undefined, undefined, undefined, undefined, undefined, undefined, undefined, stim/upper.png, stim/neutralLeft.png, left, 0, 3, 0, 3, 0, 1, 2, 2, 0, 96, 32, 1, 95, stim/upper.png, stim/neutralLeft.png, left, 0, 2, 0, 96, 32, 1, 95, stim/upper.png, stim/neutralLeft.png, left, 0, 2, 0, 96, 32, 1, 95, stim/upper.png, stim/neutralLeft.png, left, 0, cs210_June, 001, 2019-02-11_12h19.49.940, ANT, 3.0.0b12, 60
1.1000000000000005, right, 1, 0.9990000000000236, undefined, undefined, undefined, undefined, undefined, undefined, undefined, undefined, stim/lower.png, stim/neutralLeft.png, right, 180, 3, 0, 3, 0, 1, 2, 2, 0, 96, 36, 1, 95, stim/lower.png, stim/neutralLeft.png, right, 180, 2, 0, 96, 36, 1, 95, stim/lower.png, stim/neutralLeft.png, right, 180, 2, 0, 96, 36, 1, 95, stim/lower.png, stim/neutralLeft.png, right, 180, cs210_June, 001, 2019-02-11_12h19.49.940, ANT, 3.0.0b12, 60
0.9500000000000004, right, 1, 1.0790000000000077, undefined, undefined, undefined, undefined, undefined, undefined, undefined, undefined, stim/both.png, stim/congLeft.png, right, 180, 3, 0, 3, 0, 1, 2, 2, 0, 96, 5, 1, 95, stim/both.png, stim/congLeft.png, right, 180, 2, 0, 96, 5, 1, 95, stim/both.png, stim/congLeft.png, right, 180, 2, 0, 96, 5, 1, 95, stim/both.png, stim/congLeft.png, right, 180, cs210_June, 001, 2019-02-11_12h19.49.940, ANT, 3.0.0b12, 60
0.45, right, 1, 0.9630000000000223, undefined, undefined, undefined, undefined, undefined, undefined, undefined, undefined, stim/centre.png, stim/neutralLeft.png, right, 180, 3, 0, 3, 0, 1, 2, 2, 0, 96, 38, 1, 95, stim/centre.png, stim/neutralLeft.png, right, 180, 2, 0, 96, 38, 1, 95, stim/centre.png, stim/neutralLeft.png, right, 180, 2, 0, 96, 38, 1, 95, stim/centre.png, stim/neutralLeft.png, right, 180, cs210_June, 001, 2019-02-11_12h19.49.940, ANT, 3.0.0b12, 60
1.4500000000000008, left, 1, 0.9470000000000027, undefined, undefined, undefined, undefined, undefined, undefined, undefined, undefined, stim/blank.png, stim/neutralLeft.png, left, 0, 3, 0, 3, 0, 1, 2, 2, 0, 96, 35, 1, 95, stim/blank.png, stim/neutralLeft.png, left, 0, 2, 0, 96, 35, 1, 95, stim/blank.png, stim/neutralLeft.png, left, 0, 2, 0, 96, 35, 1, 95, stim/blank.png, stim/neutralLeft.png, left, 0, cs210_June, 001, 2019-02-11_12h19.49.940, ANT, 3.0.0b12, 60
0.9500000000000004, right, 1, 0.9629999999999654, undefined, undefined, undefined, undefined, undefined, undefined, undefined, undefined, stim/upper.png, stim/neutralRight.png, right, 0, 3, 0, 3, 0, 1, 2, 2, 0, 96, 40, 1, 95, stim/upper.png, stim/neutralRight.png, right, 0, 2, 0, 96, 40, 1, 95, stim/upper.png, stim/neutralRight.png, right, 0, 2, 0, 96, 40, 1, 95, stim/upper.png, stim/neutralRight.png, right, 0, cs210_June, 001, 2019-02-11_12h19.49.940, ANT, 3.0.0b12, 60
1.3500000000000008, left, 1, 0.9990000000000236, undefined, undefined, undefined, undefined, undefined, undefined, undefined, undefined, stim/both.png, stim/congRight.png, left, 180, 3, 0, 3, 0, 1, 2, 2, 0, 96, 13, 1, 95, stim/both.png, stim/congRight.png, left, 180, 2, 0, 96, 13, 1, 95, stim/both.png, stim/congRight.png, left, 180, 2, 0, 96, 13, 1, 95, stim/both.png, stim/congRight.png, left, 180, cs210_June, 001, 2019-02-11_12h19.49.940, ANT, 3.0.0b12, 60
0.5, left, 1, 1.1970000000000027, undefined, undefined, undefined, undefined, undefined, undefined, undefined, undefined, stim/blank.png, stim/incongLeft.png, left, 0, 3, 0, 3, 0, 1, 2, 2, 0, 96, 19, 1, 95, stim/blank.png, stim/incongLeft.png, left, 0, 2, 0, 96, 19, 1, 95, stim/blank.png, stim/incongLeft.png, left, 0, 2, 0, 96, 19, 1, 95, stim/blank.png, stim/incongLeft.png, left, 0, cs210_June, 001, 2019-02-11_12h19.49.940, ANT, 3.0.0b12, 60
1.0500000000000005, left, 1, 1.1310000000000855, undefined, undefined, undefined, undefined, undefined, undefined, undefined, undefined, stim/centre.png, stim/incongRight.png, left, 180, 3, 0, 3, 0, 1, 2, 2, 0, 96, 30, 1, 95, stim/centre.png, stim/incongRight.png, left, 180, 2, 0, 96, 30, 1, 95, stim/centre.png, stim/incongRight.png, left, 180, 2, 0, 96, 30, 1, 95, stim/centre.png, stim/incongRight.png, left, 180, cs210_June, 001, 2019-02-11_12h19.49.940, ANT, 3.0.0b12, 60
1.0500000000000005, right, 1, 0.9629999999999654, undefined, undefined, undefined, undefined, undefined, undefined, undefined, undefined, stim/blank.png, stim/congRight.png, right, 0, 3, 0, 3, 0, 1, 2, 2, 0, 96, 11, 1, 95, stim/blank.png, stim/congRight.png, right, 0, 2, 0, 96, 11, 1, 95, stim/blank.png, stim/congRight.png, right, 0, 2, 0, 96, 11, 1, 95, stim/blank.png, stim/congRight.png, right, 0, cs210_June, 001, 2019-02-11_12h19.49.940, ANT, 3.0.0b12, 60
0.9000000000000004, left, 1, 0.9139999999999873, undefined, undefined, undefined, undefined, undefined, undefined, undefined, undefined, stim/blank.png, stim/congRight.png, left, 180, 3, 0, 3, 0, 1, 2, 2, 0, 96, 15, 1, 95, stim/blank.png, stim/congRight.png, left, 180, 2, 0, 96, 15, 1, 95, stim/blank.png, stim/congRight.png, left, 180, 2, 0, 96, 15, 1, 95, stim/blank.png, stim/congRight.png, left, 180, cs210_June, 001, 2019-02-11_12h19.49.940, ANT, 3.0.0b12, 60
0.45, right, 1, 1.0960000000000036, undefined, undefined, undefined, undefined, undefined, undefined, undefined, undefined, stim/upper.png, stim/incongRight.png, right, 0, 3, 0, 3, 0, 1, 2, 2, 0, 96, 24, 1, 95, stim/upper.png, stim/incongRight.png, right, 0, 2, 0, 96, 24, 1, 95, stim/upper.png, stim/incongRight.png, right, 0, 2, 0, 96, 24, 1, 95, stim/upper.png, stim/incongRight.png, right, 0, cs210_June, 001, 2019-02-11_12h19.49.940, ANT, 3.0.0b12, 60
0.8000000000000003, left, 1, 1.1320000000000618, undefined, undefined, undefined, undefined, undefined, undefined, undefined, undefined, stim/centre.png, stim/incongLeft.png, left, 0, 3, 0, 3, 0, 1, 2, 2, 0, 96, 18, 1, 95, stim/centre.png, stim/incongLeft.png, left, 0, 2, 0, 96, 18, 1, 95, stim/centre.png, stim/incongLeft.png, left, 0, 2, 0, 96, 18, 1, 95, stim/centre.png, stim/incongLeft.png, left, 0, cs210_June, 001, 2019-02-11_12h19.49.940, ANT, 3.0.0b12, 60
1.3000000000000007, right, 1, 1.0810000000000173, undefined, undefined, undefined, undefined, undefined, undefined, undefined, undefined, stim/centre.png, stim/neutralRight.png, right, 0, 3, 0, 3, 0, 1, 2, 2, 0, 96, 42, 1, 95, stim/centre.png, stim/neutralRight.png, right, 0, 2, 0, 96, 42, 1, 95, stim/centre.png, stim/neutralRight.png, right, 0, 2, 0, 96, 42, 1, 95, stim/centre.png, stim/neutralRight.png, right, 0, cs210_June, 001, 2019-02-11_12h19.49.940, ANT, 3.0.0b12, 60
0.7500000000000002, left, 1, 1.0499999999999545, undefined, undefined, undefined, undefined, undefined, undefined, undefined, undefined, stim/both.png, stim/congLeft.png, left, 0, 3, 0, 3, 0, 1, 2, 2, 0, 96, 1, 1, 95, stim/both.png, stim/congLeft.png, left, 0, 2, 0, 96, 1, 1, 95, stim/both.png, stim/congLeft.png, left, 0, 2, 0, 96, 1, 1, 95, stim/both.png, stim/congLeft.png, left, 0, cs210_June, 001, 2019-02-11_12h19.49.940, ANT, 3.0.0b12, 60
1.0500000000000005, left, 0, 1.2450000000000045, undefined, undefined, undefined, undefined, undefined, undefined, undefined, undefined, stim/blank.png, stim/incongLeft.png, right, 180, 3, 0, 3, 0, 1, 2, 2, 0, 96, 23, 1, 95, stim/blank.png, stim/incongLeft.png, right, 180, 2, 0, 96, 23, 1, 95, stim/blank.png, stim/incongLeft.png, right, 180, 2, 0, 96, 23, 1, 95, stim/blank.png, stim/incongLeft.png, right, 180, cs210_June, 001, 2019-02-11_12h19.49.940, ANT, 3.0.0b12, 60
1.3000000000000007, right, 1, 0.9470000000000027, undefined, undefined, undefined, undefined, undefined, undefined, undefined, undefined, stim/blank.png, stim/neutralRight.png, right, 0, 3, 0, 3, 0, 1, 2, 2, 0, 96, 43, 1, 95, stim/blank.png, stim/neutralRight.png, right, 0, 2, 0, 96, 43, 1, 95, stim/blank.png, stim/neutralRight.png, right, 0, 2, 0, 96, 43, 1, 95, stim/blank.png, stim/neutralRight.png, right, 0, cs210_June, 001, 2019-02-11_12h19.49.940, ANT, 3.0.0b12, 60
0.6000000000000001, left, 1, 1.163000000000011, undefined, undefined, undefined, undefined, undefined, undefined, undefined, undefined, stim/lower.png, stim/incongRight.png, left, 180, 3, 0, 3, 0, 1, 2, 2, 0, 96, 28, 1, 95, stim/lower.png, stim/incongRight.png, left, 180, 2, 0, 96, 28, 1, 95, stim/lower.png, stim/incongRight.png, left, 180, 2, 0, 96, 28, 1, 95, stim/lower.png, stim/incongRight.png, left, 180, cs210_June, 001, 2019-02-11_12h19.49.940, ANT, 3.0.0b12, 60
1.4500000000000008, left, 1, 1.1299999999999955, undefined, undefined, undefined, undefined, undefined, undefined, undefined, undefined, stim/both.png, stim/incongRight.png, left, 180, 3, 0, 3, 0, 1, 2, 2, 0, 96, 29, 1, 95, stim/both.png, stim/incongRight.png, left, 180, 2, 0, 96, 29, 1, 95, stim/both.png, stim/incongRight.png, left, 180, 2, 0, 96, 29, 1, 95, stim/both.png, stim/incongRight.png, left, 180, cs210_June, 001, 2019-02-11_12h19.49.940, ANT, 3.0.0b12, 60
0.45, right, 1, 1.0960000000000036, undefined, undefined, undefined, undefined, undefined, undefined, undefined, undefined, stim/blank.png, stim/congLeft.png, right, 180, 3, 0, 3, 0, 1, 2, 2, 0, 96, 7, 1, 95, stim/blank.png, stim/congLeft.png, right, 180, 2, 0, 96, 7, 1, 95, stim/blank.png, stim/congLeft.png, right, 180, 2, 0, 96, 7, 1, 95, stim/blank.png, stim/congLeft.png, right, 180, cs210_June, 001, 2019-02-11_12h19.49.940, ANT, 3.0.0b12, 60
0.6000000000000001, right, 1, 1.3120000000000118, undefined, undefined, undefined, undefined, undefined, undefined, undefined, undefined, stim/both.png, stim/incongLeft.png, right, 180, 3, 0, 3, 0, 1, 2, 2, 0, 96, 21, 1, 95, stim/both.png, stim/incongLeft.png, right, 180, 2, 0, 96, 21, 1, 95, stim/both.png, stim/incongLeft.png, right, 180, 2, 0, 96, 21, 1, 95, stim/both.png, stim/incongLeft.png, right, 180, cs210_June, 001, 2019-02-11_12h19.49.940, ANT, 3.0.0b12, 60
0.5, left, 1, 1.0659999999999172, undefined, undefined, undefined, undefined, undefined, undefined, undefined, undefined, stim/blank.png, stim/neutralRight.png, left, 180, 3, 0, 3, 0, 1, 2, 2, 0, 96, 47, 1, 95, stim/blank.png, stim/neutralRight.png, left, 180, 2, 0, 96, 47, 1, 95, stim/blank.png, stim/neutralRight.png, left, 180, 2, 0, 96, 47, 1, 95, stim/blank.png, stim/neutralRight.png, left, 180, cs210_June, 001, 2019-02-11_12h19.49.940, ANT, 3.0.0b12, 60
1.5000000000000009, right, 0, 0.9629999999999654, undefined, undefined, undefined, undefined, undefined, undefined, undefined, undefined, stim/both.png, stim/incongLeft.png, left, 0, 3, 0, 3, 0, 1, 2, 2, 0, 96, 17, 1, 95, stim/both.png, stim/incongLeft.png, left, 0, 2, 0, 96, 17, 1, 95, stim/both.png, stim/incongLeft.png, left, 0, 2, 0, 96, 17, 1, 95, stim/both.png, stim/incongLeft.png, left, 0, cs210_June, 001, 2019-02-11_12h19.49.940, ANT, 3.0.0b12, 60
1.2000000000000006, right, 1, 1.6470000000000482, undefined, undefined, undefined, undefined, undefined, undefined, undefined, undefined, stim/centre.png, stim/incongLeft.png, right, 180, 3, 0, 3, 0, 1, 2, 2, 0, 96, 22, 1, 95, stim/centre.png, stim/incongLeft.png, right, 180, 2, 0, 96, 22, 1, 95, stim/centre.png, stim/incongLeft.png, right, 180, 2, 0, 96, 22, 1, 95, stim/centre.png, stim/incongLeft.png, right, 180, cs210_June, 001, 2019-02-11_12h19.49.940, ANT, 3.0.0b12, 60
1.4000000000000008, right, 1, 1.0810000000000173, undefined, undefined, undefined, undefined, undefined, undefined, undefined, undefined, stim/blank.png, stim/neutralLeft.png, right, 180, 3, 0, 3, 0, 1, 2, 2, 0, 96, 39, 1, 95, stim/blank.png, stim/neutralLeft.png, right, 180, 2, 0, 96, 39, 1, 95, stim/blank.png, stim/neutralLeft.png, right, 180, 2, 0, 96, 39, 1, 95, stim/blank.png, stim/neutralLeft.png, right, 180, cs210_June, 001, 2019-02-11_12h19.49.940, ANT, 3.0.0b12, 60
1.0500000000000005, left, 1, 1.0810000000000173, undefined, undefined, undefined, undefined, undefined, undefined, undefined, undefined, stim/lower.png, stim/congRight.png, left, 180, 3, 0, 3, 0, 1, 2, 2, 0, 96, 12, 1, 95, stim/lower.png, stim/congRight.png, left, 180, 2, 0, 96, 12, 1, 95, stim/lower.png, stim/congRight.png, left, 180, 2, 0, 96, 12, 1, 95, stim/lower.png, stim/congRight.png, left, 180, cs210_June, 001, 2019-02-11_12h19.49.940, ANT, 3.0.0b12, 60
0.55, right, 1, 1.11200000000008, undefined, undefined, undefined, undefined, undefined, undefined, undefined, undefined, stim/both.png, stim/incongRight.png, right, 0, 3, 0, 3, 0, 1, 2, 2, 0, 96, 25, 1, 95, stim/both.png, stim/incongRight.png, right, 0, 2, 0, 96, 25, 1, 95, stim/both.png, stim/incongRight.png, right, 0, 2, 0, 96, 25, 1, 95, stim/both.png, stim/incongRight.png, right, 0, cs210_June, 001, 2019-02-11_12h19.49.940, ANT, 3.0.0b12, 60
1.1500000000000006, right, 1, 0.9990000000000236, undefined, undefined, undefined, undefined, undefined, undefined, undefined, undefined, stim/upper.png, stim/congRight.png, right, 0, 3, 0, 3, 0, 1, 2, 2, 0, 96, 8, 1, 95, stim/upper.png, stim/congRight.png, right, 0, 2, 0, 96, 8, 1, 95, stim/upper.png, stim/congRight.png, right, 0, 2, 0, 96, 8, 1, 95, stim/upper.png, stim/congRight.png, right, 0, cs210_June, 001, 2019-02-11_12h19.49.940, ANT, 3.0.0b12, 60
0.9000000000000004, left, 1, 1.1000000000000227, undefined, undefined, undefined, undefined, undefined, undefined, undefined, undefined, stim/centre.png, stim/congRight.png, left, 180, 3, 0, 3, 0, 1, 2, 2, 0, 96, 14, 1, 95, stim/centre.png, stim/congRight.png, left, 180, 2, 0, 96, 14, 1, 95, stim/centre.png, stim/congRight.png, left, 180, 2, 0, 96, 14, 1, 95, stim/centre.png, stim/congRight.png, left, 180, cs210_June, 001, 2019-02-11_12h19.49.940, ANT, 3.0.0b12, 60
1.3500000000000008, right, 1, 0.9829999999999472, undefined, undefined, undefined, undefined, undefined, undefined, undefined, undefined, stim/both.png, stim/congRight.png, right, 0, 3, 0, 3, 0, 1, 2, 2, 0, 96, 9, 1, 95, stim/both.png, stim/congRight.png, right, 0, 2, 0, 96, 9, 1, 95, stim/both.png, stim/congRight.png, right, 0, 2, 0, 96, 9, 1, 95, stim/both.png, stim/congRight.png, right, 0, cs210_June, 001, 2019-02-11_12h19.49.940, ANT, 3.0.0b12, 60
0.7000000000000002, right, 1, 0.9779999999999518, undefined, undefined, undefined, undefined, undefined, undefined, undefined, undefined, stim/blank.png, stim/congRight.png, right, 0, 3, 0, 3, 0, 1, 2, 2, 0, 96, 11, 1, 95, stim/blank.png, stim/congRight.png, right, 0, 2, 0, 96, 11, 1, 95, stim/blank.png, stim/congRight.png, right, 0, 2, 0, 96, 11, 1, 95, stim/blank.png, stim/congRight.png, right, 0, cs210_June, 001, 2019-02-11_12h19.49.940, ANT, 3.0.0b12, 60
1.2500000000000007, left, 0, 0.9460000000000264, undefined, undefined, undefined, undefined, undefined, undefined, undefined, undefined, stim/upper.png, stim/incongRight.png, right, 0, 3, 0, 3, 0, 1, 2, 2, 0, 96, 24, 1, 95, stim/upper.png, stim/incongRight.png, right, 0, 2, 0, 96, 24, 1, 95, stim/upper.png, stim/incongRight.png, right, 0, 2, 0, 96, 24, 1, 95, stim/upper.png, stim/incongRight.png, right, 0, cs210_June, 001, 2019-02-11_12h19.49.940, ANT, 3.0.0b12, 60
0.55, right, 1, 1.0470000000000255, undefined, undefined, undefined, undefined, undefined, undefined, undefined, undefined, stim/centre.png, stim/neutralLeft.png, right, 180, 3, 0, 3, 0, 1, 2, 2, 0, 96, 38, 1, 95, stim/centre.png, stim/neutralLeft.png, right, 180, 2, 0, 96, 38, 1, 95, stim/centre.png, stim/neutralLeft.png, right, 180, 2, 0, 96, 38, 1, 95, stim/centre.png, stim/neutralLeft.png, right, 180, cs210_June, 001, 2019-02-11_12h19.49.940, ANT, 3.0.0b12, 60
1.1500000000000006, left, 1, 1.0810000000000173, undefined, undefined, undefined, undefined, undefined, undefined, undefined, undefined, stim/upper.png, stim/incongLeft.png, left, 0, 3, 0, 3, 0, 1, 2, 2, 0, 96, 16, 1, 95, stim/upper.png, stim/incongLeft.png, left, 0, 2, 0, 96, 16, 1, 95, stim/upper.png, stim/incongLeft.png, left, 0, 2, 0, 96, 16, 1, 95, stim/upper.png, stim/incongLeft.png, left, 0, cs210_June, 001, 2019-02-11_12h19.49.940, ANT, 3.0.0b12, 60
0.45, right, 1, 1.0810000000000173, undefined, undefined, undefined, undefined, undefined, undefined, undefined, undefined, stim/both.png, stim/neutralRight.png, right, 0, 3, 0, 3, 0, 1, 2, 2, 0, 96, 41, 1, 95, stim/both.png, stim/neutralRight.png, right, 0, 2, 0, 96, 41, 1, 95, stim/both.png, stim/neutralRight.png, right, 0, 2, 0, 96, 41, 1, 95, stim/both.png, stim/neutralRight.png, right, 0, cs210_June, 001, 2019-02-11_12h19.49.940, ANT, 3.0.0b12, 60
1.2500000000000007, left, 1, 1.011000000000081, undefined, undefined, undefined, undefined, undefined, undefined, undefined, undefined, stim/both.png, stim/congLeft.png, left, 0, 3, 0, 3, 0, 1, 2, 2, 0, 96, 1, 1, 95, stim/both.png, stim/congLeft.png, left, 0, 2, 0, 96, 1, 1, 95, stim/both.png, stim/congLeft.png, left, 0, 2, 0, 96, 1, 1, 95, stim/both.png, stim/congLeft.png, left, 0, cs210_June, 001, 2019-02-11_12h19.49.940, ANT, 3.0.0b12, 60
0.6500000000000001, left, 1, 1.0779999999999745, undefined, undefined, undefined, undefined, undefined, undefined, undefined, undefined, stim/blank.png, stim/congRight.png, left, 180, 3, 0, 3, 0, 1, 2, 2, 0, 96, 15, 1, 95, stim/blank.png, stim/congRight.png, left, 180, 2, 0, 96, 15, 1, 95, stim/blank.png, stim/congRight.png, left, 180, 2, 0, 96, 15, 1, 95, stim/blank.png, stim/congRight.png, left, 180, cs210_June, 001, 2019-02-11_12h19.49.940, ANT, 3.0.0b12, 60
1.0000000000000004, right, 1, 1.2130000000000791, undefined, undefined, undefined, undefined, undefined, undefined, undefined, undefined, stim/blank.png, stim/congLeft.png, right, 180, 3, 0, 3, 0, 1, 2, 2, 0, 96, 7, 1, 95, stim/blank.png, stim/congLeft.png, right, 180, 2, 0, 96, 7, 1, 95, stim/blank.png, stim/congLeft.png, right, 180, 2, 0, 96, 7, 1, 95, stim/blank.png, stim/congLeft.png, right, 180, cs210_June, 001, 2019-02-11_12h19.49.940, ANT, 3.0.0b12, 60
0.5, left, 1, 1.2139999999999418, undefined, undefined, undefined, undefined, undefined, undefined, undefined, undefined, stim/lower.png, stim/incongRight.png, left, 180, 3, 0, 3, 0, 1, 2, 2, 0, 96, 28, 1, 95, stim/lower.png, stim/incongRight.png, left, 180, 2, 0, 96, 28, 1, 95, stim/lower.png, stim/incongRight.png, left, 180, 2, 0, 96, 28, 1, 95, stim/lower.png, stim/incongRight.png, left, 180, cs210_June, 001, 2019-02-11_12h19.49.940, ANT, 3.0.0b12, 60
1.0500000000000005, right, 1, 1.1140000000000327, undefined, undefined, undefined, undefined, undefined, undefined, undefined, undefined, stim/blank.png, stim/incongRight.png, right, 0, 3, 0, 3, 0, 1, 2, 2, 0, 96, 27, 1, 95, stim/blank.png, stim/incongRight.png, right, 0, 2, 0, 96, 27, 1, 95, stim/blank.png, stim/incongRight.png, right, 0, 2, 0, 96, 27, 1, 95, stim/blank.png, stim/incongRight.png, right, 0, cs210_June, 001, 2019-02-11_12h19.49.940, ANT, 3.0.0b12, 60
0.9000000000000004, left, 1, 1.1789999999999736, undefined, undefined, undefined, undefined, undefined, undefined, undefined, undefined, stim/centre.png, stim/neutralRight.png, left, 180, 3, 0, 3, 0, 1, 2, 2, 0, 96, 46, 1, 95, stim/centre.png, stim/neutralRight.png, left, 180, 2, 0, 96, 46, 1, 95, stim/centre.png, stim/neutralRight.png, left, 180, 2, 0, 96, 46, 1, 95, stim/centre.png, stim/neutralRight.png, left, 180, cs210_June, 001, 2019-02-11_12h19.49.940, ANT, 3.0.0b12, 60
0.9000000000000004, right, 1, 1.0299999999999727, undefined, undefined, undefined, undefined, undefined, undefined, undefined, undefined, stim/blank.png, stim/neutralRight.png, right, 0, 3, 0, 3, 0, 1, 2, 2, 0, 96, 43, 1, 95, stim/blank.png, stim/neutralRight.png, right, 0, 2, 0, 96, 43, 1, 95, stim/blank.png, stim/neutralRight.png, right, 0, 2, 0, 96, 43, 1, 95, stim/blank.png, stim/neutralRight.png, right, 0, cs210_June, 001, 2019-02-11_12h19.49.940, ANT, 3.0.0b12, 60
1.0500000000000005, left, 1, 1.1319999999999482, undefined, undefined, undefined, undefined, undefined, undefined, undefined, undefined, stim/centre.png, stim/incongRight.png, left, 180, 3, 0, 3, 0, 1, 2, 2, 0, 96, 30, 1, 95, stim/centre.png, stim/incongRight.png, left, 180, 2, 0, 96, 30, 1, 95, stim/centre.png, stim/incongRight.png, left, 180, 2, 0, 96, 30, 1, 95, stim/centre.png, stim/incongRight.png, left, 180, cs210_June, 001, 2019-02-11_12h19.49.940, ANT, 3.0.0b12, 60
1.5000000000000009, right, 1, 0.9969999999999573, undefined, undefined, undefined, undefined, undefined, undefined, undefined, undefined, stim/upper.png, stim/neutralRight.png, right, 0, 3, 0, 3, 0, 1, 2, 2, 0, 96, 40, 1, 95, stim/upper.png, stim/neutralRight.png, right, 0, 2, 0, 96, 40, 1, 95, stim/upper.png, stim/neutralRight.png, right, 0, 2, 0, 96, 40, 1, 95, stim/upper.png, stim/neutralRight.png, right, 0, cs210_June, 001, 2019-02-11_12h19.49.940, ANT, 3.0.0b12, 60
1.3000000000000007, left, 1, 1.0649999999999409, undefined, undefined, undefined, undefined, undefined, undefined, undefined, undefined, stim/lower.png, stim/neutralRight.png, left, 180, 3, 0, 3, 0, 1, 2, 2, 0, 96, 44, 1, 95, stim/lower.png, stim/neutralRight.png, left, 180, 2, 0, 96, 44, 1, 95, stim/lower.png, stim/neutralRight.png, left, 180, 2, 0, 96, 44, 1, 95, stim/lower.png, stim/neutralRight.png, left, 180, cs210_June, 001, 2019-02-11_12h19.49.940, ANT, 3.0.0b12, 60
1.0500000000000005, right, 1, 0.9980000000000473, undefined, undefined, undefined, undefined, undefined, undefined, undefined, undefined, stim/lower.png, stim/congLeft.png, right, 180, 3, 0, 3, 0, 1, 2, 2, 0, 96, 4, 1, 95, stim/lower.png, stim/congLeft.png, right, 180, 2, 0, 96, 4, 1, 95, stim/lower.png, stim/congLeft.png, right, 180, 2, 0, 96, 4, 1, 95, stim/lower.png, stim/congLeft.png, right, 180, cs210_June, 001, 2019-02-11_12h19.49.940, ANT, 3.0.0b12, 60
0.5, right, 1, 1.1129999999999427, undefined, undefined, undefined, undefined, undefined, undefined, undefined, undefined, stim/blank.png, stim/incongLeft.png, right, 180, 3, 0, 3, 0, 1, 2, 2, 0, 96, 23, 1, 95, stim/blank.png, stim/incongLeft.png, right, 180, 2, 0, 96, 23, 1, 95, stim/blank.png, stim/incongLeft.png, right, 180, 2, 0, 96, 23, 1, 95, stim/blank.png, stim/incongLeft.png, right, 180, cs210_June, 001, 2019-02-11_12h19.49.940, ANT, 3.0.0b12, 60
0.45, left, 0, 0.9629999999999654, undefined, undefined, undefined, undefined, undefined, undefined, undefined, undefined, stim/both.png, stim/incongLeft.png, right, 180, 3, 0, 3, 0, 1, 2, 2, 0, 96, 21, 1, 95, stim/both.png, stim/incongLeft.png, right, 180, 2, 0, 96, 21, 1, 95, stim/both.png, stim/incongLeft.png, right, 180, 2, 0, 96, 21, 1, 95, stim/both.png, stim/incongLeft.png, right, 180, cs210_June, 001, 2019-02-11_12h19.49.940, ANT, 3.0.0b12, 60
0.5, left, 1, 1.2129999999999654, undefined, undefined, undefined, undefined, undefined, undefined, undefined, undefined, stim/both.png, stim/incongRight.png, left, 180, 3, 0, 3, 0, 1, 2, 2, 0, 96, 29, 1, 95, stim/both.png, stim/incongRight.png, left, 180, 2, 0, 96, 29, 1, 95, stim/both.png, stim/incongRight.png, left, 180, 2, 0, 96, 29, 1, 95, stim/both.png, stim/incongRight.png, left, 180, cs210_June, 001, 2019-02-11_12h19.49.940, ANT, 3.0.0b12, 60
0.7000000000000002, right, 1, 1.0300000000000864, undefined, undefined, undefined, undefined, undefined, undefined, undefined, undefined, stim/blank.png, stim/neutralLeft.png, right, 180, 3, 0, 3, 0, 1, 2, 2, 0, 96, 39, 1, 95, stim/blank.png, stim/neutralLeft.png, right, 180, 2, 0, 96, 39, 1, 95, stim/blank.png, stim/neutralLeft.png, right, 180, 2, 0, 96, 39, 1, 95, stim/blank.png, stim/neutralLeft.png, right, 180, cs210_June, 001, 2019-02-11_12h19.49.940, ANT, 3.0.0b12, 60
1.3000000000000007, right, 0, 0.914000000000101, undefined, undefined, undefined, undefined, undefined, undefined, undefined, undefined, stim/both.png, stim/incongLeft.png, left, 0, 3, 0, 3, 0, 1, 2, 2, 0, 96, 17, 1, 95, stim/both.png, stim/incongLeft.png, left, 0, 2, 0, 96, 17, 1, 95, stim/both.png, stim/incongLeft.png, left, 0, 2, 0, 96, 17, 1, 95, stim/both.png, stim/incongLeft.png, left, 0, cs210_June, 001, 2019-02-11_12h19.49.940, ANT, 3.0.0b12, 60
0.9500000000000004, left, 1, 1.1130000000000564, undefined, undefined, undefined, undefined, undefined, undefined, undefined, undefined, stim/centre.png, stim/neutralLeft.png, left, 0, 3, 0, 3, 0, 1, 2, 2, 0, 96, 34, 1, 95, stim/centre.png, stim/neutralLeft.png, left, 0, 2, 0, 96, 34, 1, 95, stim/centre.png, stim/neutralLeft.png, left, 0, 2, 0, 96, 34, 1, 95, stim/centre.png, stim/neutralLeft.png, left, 0, cs210_June, 001, 2019-02-11_12h19.49.940, ANT, 3.0.0b12, 60
0.9500000000000004, left, 1, 0.9959999999999809, undefined, undefined, undefined, undefined, undefined, undefined, undefined, undefined, stim/lower.png, stim/congRight.png, left, 180, 3, 0, 3, 0, 1, 2, 2, 0, 96, 12, 1, 95, stim/lower.png, stim/congRight.png, left, 180, 2, 0, 96, 12, 1, 95, stim/lower.png, stim/congRight.png, left, 180, 2, 0, 96, 12, 1, 95, stim/lower.png, stim/congRight.png, left, 180, cs210_June, 001, 2019-02-11_12h19.49.940, ANT, 3.0.0b12, 60
0.45, right, 1, 1.1609999999999445, undefined, undefined, undefined, undefined, undefined, undefined, undefined, undefined, stim/centre.png, stim/incongLeft.png, right, 180, 3, 0, 3, 0, 1, 2, 2, 0, 96, 22, 1, 95, stim/centre.png, stim/incongLeft.png, right, 180, 2, 0, 96, 22, 1, 95, stim/centre.png, stim/incongLeft.png, right, 180, 2, 0, 96, 22, 1, 95, stim/centre.png, stim/incongLeft.png, right, 180, cs210_June, 001, 2019-02-11_12h19.49.940, ANT, 3.0.0b12, 60
0.55, left, 1, 1.0439999999999827, undefined, undefined, undefined, undefined, undefined, undefined, undefined, undefined, stim/both.png, stim/congRight.png, left, 180, 3, 0, 3, 0, 1, 2, 2, 0, 96, 13, 1, 95, stim/both.png, stim/congRight.png, left, 180, 2, 0, 96, 13, 1, 95, stim/both.png, stim/congRight.png, left, 180, 2, 0, 96, 13, 1, 95, stim/both.png, stim/congRight.png, left, 180, cs210_June, 001, 2019-02-11_12h19.49.940, ANT, 3.0.0b12, 60
1.4000000000000008, left, 1, 1.01299999999992, undefined, undefined, undefined, undefined, undefined, undefined, undefined, undefined, stim/blank.png, stim/incongRight.png, left, 180, 3, 0, 3, 0, 1, 2, 2, 0, 96, 31, 1, 95, stim/blank.png, stim/incongRight.png, left, 180, 2, 0, 96, 31, 1, 95, stim/blank.png, stim/incongRight.png, left, 180, 2, 0, 96, 31, 1, 95, stim/blank.png, stim/incongRight.png, left, 180, cs210_June, 001, 2019-02-11_12h19.49.940, ANT, 3.0.0b12, 60
0.7500000000000002, left, 1, 1.0630000000001019, undefined, undefined, undefined, undefined, undefined, undefined, undefined, undefined, stim/centre.png, stim/congLeft.png, left, 0, 3, 0, 3, 0, 1, 2, 2, 0, 96, 2, 1, 95, stim/centre.png, stim/congLeft.png, left, 0, 2, 0, 96, 2, 1, 95, stim/centre.png, stim/congLeft.png, left, 0, 2, 0, 96, 2, 1, 95, stim/centre.png, stim/congLeft.png, left, 0, cs210_June, 001, 2019-02-11_12h19.49.940, ANT, 3.0.0b12, 60
0.45, right, 1, 1.016999999999939, undefined, undefined, undefined, undefined, undefined, undefined, undefined, undefined, stim/centre.png, stim/congRight.png, right, 0, 3, 0, 3, 0, 1, 2, 2, 0, 96, 10, 1, 95, stim/centre.png, stim/congRight.png, right, 0, 2, 0, 96, 10, 1, 95, stim/centre.png, stim/congRight.png, right, 0, 2, 0, 96, 10, 1, 95, stim/centre.png, stim/congRight.png, right, 0, cs210_June, 001, 2019-02-11_12h19.49.940, ANT, 3.0.0b12, 60
0.6000000000000001, left, 1, 0.9960000000000946, undefined, undefined, undefined, undefined, undefined, undefined, undefined, undefined, stim/centre.png, stim/congRight.png, left, 180, 3, 0, 3, 0, 1, 2, 2, 0, 96, 14, 1, 95, stim/centre.png, stim/congRight.png, left, 180, 2, 0, 96, 14, 1, 95, stim/centre.png, stim/congRight.png, left, 180, 2, 0, 96, 14, 1, 95, stim/centre.png, stim/congRight.png, left, 180, cs210_June, 001, 2019-02-11_12h19.49.940, ANT, 3.0.0b12, 60
1.3500000000000008, left, 1, 1.09699999999998, undefined, undefined, undefined, undefined, undefined, undefined, undefined, undefined, stim/both.png, stim/neutralRight.png, left, 180, 3, 0, 3, 0, 1, 2, 2, 0, 96, 45, 1, 95, stim/both.png, stim/neutralRight.png, left, 180, 2, 0, 96, 45, 1, 95, stim/both.png, stim/neutralRight.png, left, 180, 2, 0, 96, 45, 1, 95, stim/both.png, stim/neutralRight.png, left, 180, cs210_June, 001, 2019-02-11_12h19.49.940, ANT, 3.0.0b12, 60
1.5000000000000009, left, 1, 1.1159999999999854, undefined, undefined, undefined, undefined, undefined, undefined, undefined, undefined, stim/upper.png, stim/neutralLeft.png, left, 0, 3, 0, 3, 0, 1, 2, 2, 0, 96, 32, 1, 95, stim/upper.png, stim/neutralLeft.png, left, 0, 2, 0, 96, 32, 1, 95, stim/upper.png, stim/neutralLeft.png, left, 0, 2, 0, 96, 32, 1, 95, stim/upper.png, stim/neutralLeft.png, left, 0, cs210_June, 001, 2019-02-11_12h19.49.940, ANT, 3.0.0b12, 60
0.6500000000000001, right, 1, 1.0130000000000337, undefined, undefined, undefined, undefined, undefined, undefined, undefined, undefined, stim/both.png, stim/congRight.png, right, 0, 3, 0, 3, 0, 1, 2, 2, 0, 96, 9, 1, 95, stim/both.png, stim/congRight.png, right, 0, 2, 0, 96, 9, 1, 95, stim/both.png, stim/congRight.png, right, 0, 2, 0, 96, 9, 1, 95, stim/both.png, stim/congRight.png, right, 0, cs210_June, 001, 2019-02-11_12h19.49.940, ANT, 3.0.0b12, 60
1.1000000000000005, right, 1, 1.1119999999999663, undefined, undefined, undefined, undefined, undefined, undefined, undefined, undefined, stim/both.png, stim/incongRight.png, right, 0, 3, 0, 3, 0, 1, 2, 2, 0, 96, 25, 1, 95, stim/both.png, stim/incongRight.png, right, 0, 2, 0, 96, 25, 1, 95, stim/both.png, stim/incongRight.png, right, 0, 2, 0, 96, 25, 1, 95, stim/both.png, stim/incongRight.png, right, 0, cs210_June, 001, 2019-02-11_12h19.49.940, ANT, 3.0.0b12, 60
0.4, left, 1, 1.129000000000019, undefined, undefined, undefined, undefined, undefined, undefined, undefined, undefined, stim/centre.png, stim/incongLeft.png, left, 0, 3, 0, 3, 0, 1, 2, 2, 0, 96, 18, 1, 95, stim/centre.png, stim/incongLeft.png, left, 0, 2, 0, 96, 18, 1, 95, stim/centre.png, stim/incongLeft.png, left, 0, 2, 0, 96, 18, 1, 95, stim/centre.png, stim/incongLeft.png, left, 0, cs210_June, 001, 2019-02-11_12h19.49.940, ANT, 3.0.0b12, 60
0.45, right, 1, 0.9640000000000555, undefined, undefined, undefined, undefined, undefined, undefined, undefined, undefined, stim/centre.png, stim/congLeft.png, right, 180, 3, 0, 3, 0, 1, 2, 2, 0, 96, 6, 1, 95, stim/centre.png, stim/congLeft.png, right, 180, 2, 0, 96, 6, 1, 95, stim/centre.png, stim/congLeft.png, right, 180, 2, 0, 96, 6, 1, 95, stim/centre.png, stim/congLeft.png, right, 180, cs210_June, 001, 2019-02-11_12h19.49.940, ANT, 3.0.0b12, 60
1.550000000000001, right, 1, 1.0470000000000255, undefined, undefined, undefined, undefined, undefined, undefined, undefined, undefined, stim/centre.png, stim/neutralRight.png, right, 0, 3, 0, 3, 0, 1, 2, 2, 0, 96, 42, 1, 95, stim/centre.png, stim/neutralRight.png, right, 0, 2, 0, 96, 42, 1, 95, stim/centre.png, stim/neutralRight.png, right, 0, 2, 0, 96, 42, 1, 95, stim/centre.png, stim/neutralRight.png, right, 0, cs210_June, 001, 2019-02-11_12h19.49.940, ANT, 3.0.0b12, 60
1.4500000000000008, left, 1, 1.1790000000000873, undefined, undefined, undefined, undefined, undefined, undefined, undefined, undefined, stim/blank.png, stim/neutralLeft.png, left, 0, 3, 0, 3, 0, 1, 2, 2, 0, 96, 35, 1, 95, stim/blank.png, stim/neutralLeft.png, left, 0, 2, 0, 96, 35, 1, 95, stim/blank.png, stim/neutralLeft.png, left, 0, 2, 0, 96, 35, 1, 95, stim/blank.png, stim/neutralLeft.png, left, 0, cs210_June, 001, 2019-02-11_12h19.49.940, ANT, 3.0.0b12, 60
1.3000000000000007, left, 1, 1.1440000000000055, undefined, undefined, undefined, undefined, undefined, undefined, undefined, undefined, stim/blank.png, stim/incongLeft.png, left, 0, 3, 0, 3, 0, 1, 2, 2, 0, 96, 19, 1, 95, stim/blank.png, stim/incongLeft.png, left, 0, 2, 0, 96, 19, 1, 95, stim/blank.png, stim/incongLeft.png, left, 0, 2, 0, 96, 19, 1, 95, stim/blank.png, stim/incongLeft.png, left, 0, cs210_June, 001, 2019-02-11_12h19.49.940, ANT, 3.0.0b12, 60
1.550000000000001, right, 1, 0.9969999999999573, undefined, undefined, undefined, undefined, undefined, undefined, undefined, undefined, stim/both.png, stim/congLeft.png, right, 180, 3, 0, 3, 0, 1, 2, 2, 0, 96, 5, 1, 95, stim/both.png, stim/congLeft.png, right, 180, 2, 0, 96, 5, 1, 95, stim/both.png, stim/congLeft.png, right, 180, 2, 0, 96, 5, 1, 95, stim/both.png, stim/congLeft.png, right, 180, cs210_June, 001, 2019-02-11_12h19.49.940, ANT, 3.0.0b12, 60
0.5, left, 1, 1.0470000000000255, undefined, undefined, undefined, undefined, undefined, undefined, undefined, undefined, stim/blank.png, stim/neutralRight.png, left, 180, 3, 0, 3, 0, 1, 2, 2, 0, 96, 47, 1, 95, stim/blank.png, stim/neutralRight.png, left, 180, 2, 0, 96, 47, 1, 95, stim/blank.png, stim/neutralRight.png, left, 180, 2, 0, 96, 47, 1, 95, stim/blank.png, stim/neutralRight.png, left, 180, cs210_June, 001, 2019-02-11_12h19.49.940, ANT, 3.0.0b12, 60
0.45, right, 1, 1.01400000000001, undefined, undefined, undefined, undefined, undefined, undefined, undefined, undefined, stim/upper.png, stim/congRight.png, right, 0, 3, 0, 3, 0, 1, 2, 2, 0, 96, 8, 1, 95, stim/upper.png, stim/congRight.png, right, 0, 2, 0, 96, 8, 1, 95, stim/upper.png, stim/congRight.png, right, 0, 2, 0, 96, 8, 1, 95, stim/upper.png, stim/congRight.png, right, 0, cs210_June, 001, 2019-02-11_12h19.49.940, ANT, 3.0.0b12, 60
0.4, right, 1, 1.1299999999999955, undefined, undefined, undefined, undefined, undefined, undefined, undefined, undefined, stim/lower.png, stim/incongLeft.png, right, 180, 3, 0, 3, 0, 1, 2, 2, 0, 96, 20, 1, 95, stim/lower.png, stim/incongLeft.png, right, 180, 2, 0, 96, 20, 1, 95, stim/lower.png, stim/incongLeft.png, right, 180, 2, 0, 96, 20, 1, 95, stim/lower.png, stim/incongLeft.png, right, 180, cs210_June, 001, 2019-02-11_12h19.49.940, ANT, 3.0.0b12, 60
0.6000000000000001, left, 1, 1.0459999999999354, undefined, undefined, undefined, undefined, undefined, undefined, undefined, undefined, stim/both.png, stim/neutralLeft.png, left, 0, 3, 0, 3, 0, 1, 2, 2, 0, 96, 33, 1, 95, stim/both.png, stim/neutralLeft.png, left, 0, 2, 0, 96, 33, 1, 95, stim/both.png, stim/neutralLeft.png, left, 0, 2, 0, 96, 33, 1, 95, stim/both.png, stim/neutralLeft.png, left, 0, cs210_June, 001, 2019-02-11_12h19.49.940, ANT, 3.0.0b12, 60
1.0500000000000005, left, 1, 1.0130000000000337, undefined, undefined, undefined, undefined, undefined, undefined, undefined, undefined, stim/upper.png, stim/congLeft.png, left, 0, 3, 0, 3, 0, 1, 2, 2, 0, 96, 0, 1, 95, stim/upper.png, stim/congLeft.png, left, 0, 2, 0, 96, 0, 1, 95, stim/upper.png, stim/congLeft.png, left, 0, 2, 0, 96, 0, 1, 95, stim/upper.png, stim/congLeft.png, left, 0, cs210_June, 001, 2019-02-11_12h19.49.940, ANT, 3.0.0b12, 60
1.0000000000000004, right, 1, 0.9800000000000182, undefined, undefined, undefined, undefined, undefined, undefined, undefined, undefined, stim/both.png, stim/neutralLeft.png, right, 180, 3, 0, 3, 0, 1, 2, 2, 0, 96, 37, 1, 95, stim/both.png, stim/neutralLeft.png, right, 180, 2, 0, 96, 37, 1, 95, stim/both.png, stim/neutralLeft.png, right, 180, 2, 0, 96, 37, 1, 95, stim/both.png, stim/neutralLeft.png, right, 180, cs210_June, 001, 2019-02-11_12h19.49.940, ANT, 3.0.0b12, 60
1.2500000000000007, right, 1, 1.0640000000000782, undefined, undefined, undefined, undefined, undefined, undefined, undefined, undefined, stim/lower.png, stim/neutralLeft.png, right, 180, 3, 0, 3, 0, 1, 2, 2, 0, 96, 36, 1, 95, stim/lower.png, stim/neutralLeft.png, right, 180, 2, 0, 96, 36, 1, 95, stim/lower.png, stim/neutralLeft.png, right, 180, 2, 0, 96, 36, 1, 95, stim/lower.png, stim/neutralLeft.png, right, 180, cs210_June, 001, 2019-02-11_12h19.49.940, ANT, 3.0.0b12, 60
0.5, left, 1, 0.9780000000000655, undefined, undefined, undefined, undefined, undefined, undefined, undefined, undefined, stim/blank.png, stim/congLeft.png, left, 0, 3, 0, 3, 0, 1, 2, 2, 0, 96, 3, 1, 95, stim/blank.png, stim/congLeft.png, left, 0, 2, 0, 96, 3, 1, 95, stim/blank.png, stim/congLeft.png, left, 0, 2, 0, 96, 3, 1, 95, stim/blank.png, stim/congLeft.png, left, 0, cs210_June, 001, 2019-02-11_12h19.49.940, ANT, 3.0.0b12, 60
1.3500000000000008, right, 1, 1.0650000000000546, undefined, undefined, undefined, undefined, undefined, undefined, undefined, undefined, stim/centre.png, stim/incongRight.png, right, 0, 3, 0, 3, 0, 1, 2, 2, 0, 96, 26, 1, 95, stim/centre.png, stim/incongRight.png, right, 0, 2, 0, 96, 26, 1, 95, stim/centre.png, stim/incongRight.png, right, 0, 2, 0, 96, 26, 1, 95, stim/centre.png, stim/incongRight.png, right, 0, cs210_June, 001, 2019-02-11_12h19.49.940, ANT, 3.0.0b12, 60
undefined, undefined, undefined, undefined, undefined, undefined, undefined, undefined, undefined, undefined, undefined, undefined, undefined, undefined, undefined, undefined, 3, 0, 3, 0, 1, 2, undefined, undefined, undefined, undefined, undefined, undefined, undefined, undefined, undefined, undefined, undefined, undefined, undefined, undefined, undefined, undefined, undefined, undefined, undefined, undefined, undefined, undefined, undefined, undefined, undefined, undefined, undefined, undefined, undefined, undefined, cs210_June, 001, 2019-02-11_12h19.49.940, ANT, 3.0.0b12, 60
0.45, left, 1, 1.2659999999999627, undefined, undefined, undefined, undefined, undefined, undefined, undefined, undefined, stim/blank.png, stim/neutralLeft.png, left, 0, 3, 0, 3, 0, 1, 2, 2, 0, 96, 35, 1, 95, stim/blank.png, stim/neutralLeft.png, left, 0, 2, 0, 96, 35, 1, 95, stim/blank.png, stim/neutralLeft.png, left, 0, 2, 0, 96, 35, 1, 95, stim/blank.png, stim/neutralLeft.png, left, 0, cs210_June, 001, 2019-02-11_12h19.49.940, ANT, 3.0.0b12, 60
0.8500000000000003, left, 1, 1.0149999999999864, undefined, undefined, undefined, undefined, undefined, undefined, undefined, undefined, stim/centre.png, stim/congLeft.png, left, 0, 3, 0, 3, 0, 1, 2, 2, 0, 96, 2, 1, 95, stim/centre.png, stim/congLeft.png, left, 0, 2, 0, 96, 2, 1, 95, stim/centre.png, stim/congLeft.png, left, 0, 2, 0, 96, 2, 1, 95, stim/centre.png, stim/congLeft.png, left, 0, cs210_June, 001, 2019-02-11_12h19.49.940, ANT, 3.0.0b12, 60
0.6500000000000001, right, 1, 1.0470000000000255, undefined, undefined, undefined, undefined, undefined, undefined, undefined, undefined, stim/both.png, stim/neutralRight.png, right, 0, 3, 0, 3, 0, 1, 2, 2, 0, 96, 41, 1, 95, stim/both.png, stim/neutralRight.png, right, 0, 2, 0, 96, 41, 1, 95, stim/both.png, stim/neutralRight.png, right, 0, 2, 0, 96, 41, 1, 95, stim/both.png, stim/neutralRight.png, right, 0, cs210_June, 001, 2019-02-11_12h19.49.940, ANT, 3.0.0b12, 60
0.55, left, 0, 0.99899999999991, undefined, undefined, undefined, undefined, undefined, undefined, undefined, undefined, stim/blank.png, stim/incongLeft.png, right, 180, 3, 0, 3, 0, 1, 2, 2, 0, 96, 23, 1, 95, stim/blank.png, stim/incongLeft.png, right, 180, 2, 0, 96, 23, 1, 95, stim/blank.png, stim/incongLeft.png, right, 180, 2, 0, 96, 23, 1, 95, stim/blank.png, stim/incongLeft.png, right, 180, cs210_June, 001, 2019-02-11_12h19.49.940, ANT, 3.0.0b12, 60
0.4, right, 1, 1.1459999999999582, undefined, undefined, undefined, undefined, undefined, undefined, undefined, undefined, stim/upper.png, stim/incongRight.png, right, 0, 3, 0, 3, 0, 1, 2, 2, 0, 96, 24, 1, 95, stim/upper.png, stim/incongRight.png, right, 0, 2, 0, 96, 24, 1, 95, stim/upper.png, stim/incongRight.png, right, 0, 2, 0, 96, 24, 1, 95, stim/upper.png, stim/incongRight.png, right, 0, cs210_June, 001, 2019-02-11_12h19.49.940, ANT, 3.0.0b12, 60
0.7000000000000002, right, 1, 0.9289999999999736, undefined, undefined, undefined, undefined, undefined, undefined, undefined, undefined, stim/lower.png, stim/congLeft.png, right, 180, 3, 0, 3, 0, 1, 2, 2, 0, 96, 4, 1, 95, stim/lower.png, stim/congLeft.png, right, 180, 2, 0, 96, 4, 1, 95, stim/lower.png, stim/congLeft.png, right, 180, 2, 0, 96, 4, 1, 95, stim/lower.png, stim/congLeft.png, right, 180, cs210_June, 001, 2019-02-11_12h19.49.940, ANT, 3.0.0b12, 60
0.5, right, 1, 0.9149999999999636, undefined, undefined, undefined, undefined, undefined, undefined, undefined, undefined, stim/both.png, stim/congRight.png, right, 0, 3, 0, 3, 0, 1, 2, 2, 0, 96, 9, 1, 95, stim/both.png, stim/congRight.png, right, 0, 2, 0, 96, 9, 1, 95, stim/both.png, stim/congRight.png, right, 0, 2, 0, 96, 9, 1, 95, stim/both.png, stim/congRight.png, right, 0, cs210_June, 001, 2019-02-11_12h19.49.940, ANT, 3.0.0b12, 60
0.9000000000000004, right, 1, 1.09699999999998, undefined, undefined, undefined, undefined, undefined, undefined, undefined, undefined, stim/lower.png, stim/incongLeft.png, right, 180, 3, 0, 3, 0, 1, 2, 2, 0, 96, 20, 1, 95, stim/lower.png, stim/incongLeft.png, right, 180, 2, 0, 96, 20, 1, 95, stim/lower.png, stim/incongLeft.png, right, 180, 2, 0, 96, 20, 1, 95, stim/lower.png, stim/incongLeft.png, right, 180, cs210_June, 001, 2019-02-11_12h19.49.940, ANT, 3.0.0b12, 60
1.550000000000001, left, 1, 0.9800000000000182, undefined, undefined, undefined, undefined, undefined, undefined, undefined, undefined, stim/centre.png, stim/congRight.png, left, 180, 3, 0, 3, 0, 1, 2, 2, 0, 96, 14, 1, 95, stim/centre.png, stim/congRight.png, left, 180, 2, 0, 96, 14, 1, 95, stim/centre.png, stim/congRight.png, left, 180, 2, 0, 96, 14, 1, 95, stim/centre.png, stim/congRight.png, left, 180, cs210_June, 001, 2019-02-11_12h19.49.940, ANT, 3.0.0b12, 60
1.1500000000000006, right, 0, 0.9800000000000182, undefined, undefined, undefined, undefined, undefined, undefined, undefined, undefined, stim/centre.png, stim/incongLeft.png, left, 0, 3, 0, 3, 0, 1, 2, 2, 0, 96, 18, 1, 95, stim/centre.png, stim/incongLeft.png, left, 0, 2, 0, 96, 18, 1, 95, stim/centre.png, stim/incongLeft.png, left, 0, 2, 0, 96, 18, 1, 95, stim/centre.png, stim/incongLeft.png, left, 0, cs210_June, 001, 2019-02-11_12h19.49.940, ANT, 3.0.0b12, 60
1.3000000000000007, right, 1, 0.9639999999999418, undefined, undefined, undefined, undefined, undefined, undefined, undefined, undefined, stim/upper.png, stim/congRight.png, right, 0, 3, 0, 3, 0, 1, 2, 2, 0, 96, 8, 1, 95, stim/upper.png, stim/congRight.png, right, 0, 2, 0, 96, 8, 1, 95, stim/upper.png, stim/congRight.png, right, 0, 2, 0, 96, 8, 1, 95, stim/upper.png, stim/congRight.png, right, 0, cs210_June, 001, 2019-02-11_12h19.49.940, ANT, 3.0.0b12, 60
0.55, left, 1, 0.9470000000000027, undefined, undefined, undefined, undefined, undefined, undefined, undefined, undefined, stim/lower.png, stim/neutralRight.png, left, 180, 3, 0, 3, 0, 1, 2, 2, 0, 96, 44, 1, 95, stim/lower.png, stim/neutralRight.png, left, 180, 2, 0, 96, 44, 1, 95, stim/lower.png, stim/neutralRight.png, left, 180, 2, 0, 96, 44, 1, 95, stim/lower.png, stim/neutralRight.png, left, 180, cs210_June, 001, 2019-02-11_12h19.49.940, ANT, 3.0.0b12, 60
0.6500000000000001, left, 1, 1.1280000000000427, undefined, undefined, undefined, undefined, undefined, undefined, undefined, undefined, stim/both.png, stim/incongLeft.png, left, 0, 3, 0, 3, 0, 1, 2, 2, 0, 96, 17, 1, 95, stim/both.png, stim/incongLeft.png, left, 0, 2, 0, 96, 17, 1, 95, stim/both.png, stim/incongLeft.png, left, 0, 2, 0, 96, 17, 1, 95, stim/both.png, stim/incongLeft.png, left, 0, cs210_June, 001, 2019-02-11_12h19.49.940, ANT, 3.0.0b12, 60
0.55, left, 1, 1.0639999999999645, undefined, undefined, undefined, undefined, undefined, undefined, undefined, undefined, stim/blank.png, stim/incongLeft.png, left, 0, 3, 0, 3, 0, 1, 2, 2, 0, 96, 19, 1, 95, stim/blank.png, stim/incongLeft.png, left, 0, 2, 0, 96, 19, 1, 95, stim/blank.png, stim/incongLeft.png, left, 0, 2, 0, 96, 19, 1, 95, stim/blank.png, stim/incongLeft.png, left, 0, cs210_June, 001, 2019-02-11_12h19.49.940, ANT, 3.0.0b12, 60
1.1500000000000006, right, 1, 1.0109999999999673, undefined, undefined, undefined, undefined, undefined, undefined, undefined, undefined, stim/lower.png, stim/neutralLeft.png, right, 180, 3, 0, 3, 0, 1, 2, 2, 0, 96, 36, 1, 95, stim/lower.png, stim/neutralLeft.png, right, 180, 2, 0, 96, 36, 1, 95, stim/lower.png, stim/neutralLeft.png, right, 180, 2, 0, 96, 36, 1, 95, stim/lower.png, stim/neutralLeft.png, right, 180, cs210_June, 001, 2019-02-11_12h19.49.940, ANT, 3.0.0b12, 60
1.0500000000000005, left, 1, 1.1459999999999582, undefined, undefined, undefined, undefined, undefined, undefined, undefined, undefined, stim/upper.png, stim/incongLeft.png, left, 0, 3, 0, 3, 0, 1, 2, 2, 0, 96, 16, 1, 95, stim/upper.png, stim/incongLeft.png, left, 0, 2, 0, 96, 16, 1, 95, stim/upper.png, stim/incongLeft.png, left, 0, 2, 0, 96, 16, 1, 95, stim/upper.png, stim/incongLeft.png, left, 0, cs210_June, 001, 2019-02-11_12h19.49.940, ANT, 3.0.0b12, 60
0.7500000000000002, left, 1, 0.9479999999999791, undefined, undefined, undefined, undefined, undefined, undefined, undefined, undefined, stim/blank.png, stim/congLeft.png, left, 0, 3, 0, 3, 0, 1, 2, 2, 0, 96, 3, 1, 95, stim/blank.png, stim/congLeft.png, left, 0, 2, 0, 96, 3, 1, 95, stim/blank.png, stim/congLeft.png, left, 0, 2, 0, 96, 3, 1, 95, stim/blank.png, stim/congLeft.png, left, 0, cs210_June, 001, 2019-02-11_12h19.49.940, ANT, 3.0.0b12, 60
0.8000000000000003, left, 1, 0.8950000000000955, undefined, undefined, undefined, undefined, undefined, undefined, undefined, undefined, stim/upper.png, stim/neutralLeft.png, left, 0, 3, 0, 3, 0, 1, 2, 2, 0, 96, 32, 1, 95, stim/upper.png, stim/neutralLeft.png, left, 0, 2, 0, 96, 32, 1, 95, stim/upper.png, stim/neutralLeft.png, left, 0, 2, 0, 96, 32, 1, 95, stim/upper.png, stim/neutralLeft.png, left, 0, cs210_June, 001, 2019-02-11_12h19.49.940, ANT, 3.0.0b12, 60
1.4500000000000008, right, 1, 1.0119999999999436, undefined, undefined, undefined, undefined, undefined, undefined, undefined, undefined, stim/centre.png, stim/neutralRight.png, right, 0, 3, 0, 3, 0, 1, 2, 2, 0, 96, 42, 1, 95, stim/centre.png, stim/neutralRight.png, right, 0, 2, 0, 96, 42, 1, 95, stim/centre.png, stim/neutralRight.png, right, 0, 2, 0, 96, 42, 1, 95, stim/centre.png, stim/neutralRight.png, right, 0, cs210_June, 001, 2019-02-11_12h19.49.940, ANT, 3.0.0b12, 60
1.550000000000001, right, 1, 0.9800000000000182, undefined, undefined, undefined, undefined, undefined, undefined, undefined, undefined, stim/blank.png, stim/neutralLeft.png, right, 180, 3, 0, 3, 0, 1, 2, 2, 0, 96, 39, 1, 95, stim/blank.png, stim/neutralLeft.png, right, 180, 2, 0, 96, 39, 1, 95, stim/blank.png, stim/neutralLeft.png, right, 180, 2, 0, 96, 39, 1, 95, stim/blank.png, stim/neutralLeft.png, right, 180, cs210_June, 001, 2019-02-11_12h19.49.940, ANT, 3.0.0b12, 60
1.0000000000000004, left, 1, 1.0810000000000173, undefined, undefined, undefined, undefined, undefined, undefined, undefined, undefined, stim/lower.png, stim/incongRight.png, left, 180, 3, 0, 3, 0, 1, 2, 2, 0, 96, 28, 1, 95, stim/lower.png, stim/incongRight.png, left, 180, 2, 0, 96, 28, 1, 95, stim/lower.png, stim/incongRight.png, left, 180, 2, 0, 96, 28, 1, 95, stim/lower.png, stim/incongRight.png, left, 180, cs210_June, 001, 2019-02-11_12h19.49.940, ANT, 3.0.0b12, 60
1.550000000000001, right, 1, 0.9470000000000027, undefined, undefined, undefined, undefined, undefined, undefined, undefined, undefined, stim/centre.png, stim/congRight.png, right, 0, 3, 0, 3, 0, 1, 2, 2, 0, 96, 10, 1, 95, stim/centre.png, stim/congRight.png, right, 0, 2, 0, 96, 10, 1, 95, stim/centre.png, stim/congRight.png, right, 0, 2, 0, 96, 10, 1, 95, stim/centre.png, stim/congRight.png, right, 0, cs210_June, 001, 2019-02-11_12h19.49.940, ANT, 3.0.0b12, 60
1.3000000000000007, right, 1, 0.9300000000000637, undefined, undefined, undefined, undefined, undefined, undefined, undefined, undefined, stim/upper.png, stim/neutralRight.png, right, 0, 3, 0, 3, 0, 1, 2, 2, 0, 96, 40, 1, 95, stim/upper.png, stim/neutralRight.png, right, 0, 2, 0, 96, 40, 1, 95, stim/upper.png, stim/neutralRight.png, right, 0, 2, 0, 96, 40, 1, 95, stim/upper.png, stim/neutralRight.png, right, 0, cs210_June, 001, 2019-02-11_12h19.49.940, ANT, 3.0.0b12, 60
1.550000000000001, left, 0, 0.9639999999999418, undefined, undefined, undefined, undefined, undefined, undefined, undefined, undefined, stim/centre.png, stim/neutralLeft.png, right, 180, 3, 0, 3, 0, 1, 2, 2, 0, 96, 38, 1, 95, stim/centre.png, stim/neutralLeft.png, right, 180, 2, 0, 96, 38, 1, 95, stim/centre.png, stim/neutralLeft.png, right, 180, 2, 0, 96, 38, 1, 95, stim/centre.png, stim/neutralLeft.png, right, 180, cs210_June, 001, 2019-02-11_12h19.49.940, ANT, 3.0.0b12, 60
1.2000000000000006, right, 1, 1.032000000000039, undefined, undefined, undefined, undefined, undefined, undefined, undefined, undefined, stim/both.png, stim/neutralLeft.png, right, 180, 3, 0, 3, 0, 1, 2, 2, 0, 96, 37, 1, 95, stim/both.png, stim/neutralLeft.png, right, 180, 2, 0, 96, 37, 1, 95, stim/both.png, stim/neutralLeft.png, right, 180, 2, 0, 96, 37, 1, 95, stim/both.png, stim/neutralLeft.png, right, 180, cs210_June, 001, 2019-02-11_12h19.49.940, ANT, 3.0.0b12, 60
1.2000000000000006, left, 1, 1.01400000000001, undefined, undefined, undefined, undefined, undefined, undefined, undefined, undefined, stim/upper.png, stim/congLeft.png, left, 0, 3, 0, 3, 0, 1, 2, 2, 0, 96, 0, 1, 95, stim/upper.png, stim/congLeft.png, left, 0, 2, 0, 96, 0, 1, 95, stim/upper.png, stim/congLeft.png, left, 0, 2, 0, 96, 0, 1, 95, stim/upper.png, stim/congLeft.png, left, 0, cs210_June, 001, 2019-02-11_12h19.49.940, ANT, 3.0.0b12, 60
0.55, left, 1, 1.066000000000031, undefined, undefined, undefined, undefined, undefined, undefined, undefined, undefined, stim/centre.png, stim/incongRight.png, left, 180, 3, 0, 3, 0, 1, 2, 2, 0, 96, 30, 1, 95, stim/centre.png, stim/incongRight.png, left, 180, 2, 0, 96, 30, 1, 95, stim/centre.png, stim/incongRight.png, left, 180, 2, 0, 96, 30, 1, 95, stim/centre.png, stim/incongRight.png, left, 180, cs210_June, 001, 2019-02-11_12h19.49.940, ANT, 3.0.0b12, 60
0.9500000000000004, left, 1, 0.9819999999999709, undefined, undefined, undefined, undefined, undefined, undefined, undefined, undefined, stim/both.png, stim/congRight.png, left, 180, 3, 0, 3, 0, 1, 2, 2, 0, 96, 13, 1, 95, stim/both.png, stim/congRight.png, left, 180, 2, 0, 96, 13, 1, 95, stim/both.png, stim/congRight.png, left, 180, 2, 0, 96, 13, 1, 95, stim/both.png, stim/congRight.png, left, 180, cs210_June, 001, 2019-02-11_12h19.49.940, ANT, 3.0.0b12, 60
1.2500000000000007, left, 1, 0.9149999999999636, undefined, undefined, undefined, undefined, undefined, undefined, undefined, undefined, stim/centre.png, stim/neutralRight.png, left, 180, 3, 0, 3, 0, 1, 2, 2, 0, 96, 46, 1, 95, stim/centre.png, stim/neutralRight.png, left, 180, 2, 0, 96, 46, 1, 95, stim/centre.png, stim/neutralRight.png, left, 180, 2, 0, 96, 46, 1, 95, stim/centre.png, stim/neutralRight.png, left, 180, cs210_June, 001, 2019-02-11_12h19.49.940, ANT, 3.0.0b12, 60
1.4000000000000008, right, 1, 0.9490000000000691, undefined, undefined, undefined, undefined, undefined, undefined, undefined, undefined, stim/blank.png, stim/congLeft.png, right, 180, 3, 0, 3, 0, 1, 2, 2, 0, 96, 7, 1, 95, stim/blank.png, stim/congLeft.png, right, 180, 2, 0, 96, 7, 1, 95, stim/blank.png, stim/congLeft.png, right, 180, 2, 0, 96, 7, 1, 95, stim/blank.png, stim/congLeft.png, right, 180, cs210_June, 001, 2019-02-11_12h19.49.940, ANT, 3.0.0b12, 60
1.1500000000000006, right, 1, 0.9470000000000027, undefined, undefined, undefined, undefined, undefined, undefined, undefined, undefined, stim/blank.png, stim/neutralRight.png, right, 0, 3, 0, 3, 0, 1, 2, 2, 0, 96, 43, 1, 95, stim/blank.png, stim/neutralRight.png, right, 0, 2, 0, 96, 43, 1, 95, stim/blank.png, stim/neutralRight.png, right, 0, 2, 0, 96, 43, 1, 95, stim/blank.png, stim/neutralRight.png, right, 0, cs210_June, 001, 2019-02-11_12h19.49.940, ANT, 3.0.0b12, 60
0.4, left, 1, 0.9789999999999281, undefined, undefined, undefined, undefined, undefined, undefined, undefined, undefined, stim/both.png, stim/congLeft.png, left, 0, 3, 0, 3, 0, 1, 2, 2, 0, 96, 1, 1, 95, stim/both.png, stim/congLeft.png, left, 0, 2, 0, 96, 1, 1, 95, stim/both.png, stim/congLeft.png, left, 0, 2, 0, 96, 1, 1, 95, stim/both.png, stim/congLeft.png, left, 0, cs210_June, 001, 2019-02-11_12h19.49.940, ANT, 3.0.0b12, 60
1.1500000000000006, left, 1, 1.0289999999999964, undefined, undefined, undefined, undefined, undefined, undefined, undefined, undefined, stim/both.png, stim/neutralRight.png, left, 180, 3, 0, 3, 0, 1, 2, 2, 0, 96, 45, 1, 95, stim/both.png, stim/neutralRight.png, left, 180, 2, 0, 96, 45, 1, 95, stim/both.png, stim/neutralRight.png, left, 180, 2, 0, 96, 45, 1, 95, stim/both.png, stim/neutralRight.png, left, 180, cs210_June, 001, 2019-02-11_12h19.49.940, ANT, 3.0.0b12, 60
1.2000000000000006, left, 1, 0.9800000000000182, undefined, undefined, undefined, undefined, undefined, undefined, undefined, undefined, stim/lower.png, stim/congRight.png, left, 180, 3, 0, 3, 0, 1, 2, 2, 0, 96, 12, 1, 95, stim/lower.png, stim/congRight.png, left, 180, 2, 0, 96, 12, 1, 95, stim/lower.png, stim/congRight.png, left, 180, 2, 0, 96, 12, 1, 95, stim/lower.png, stim/congRight.png, left, 180, cs210_June, 001, 2019-02-11_12h19.49.940, ANT, 3.0.0b12, 60
0.9000000000000004, right, 1, 0.9980000000000473, undefined, undefined, undefined, undefined, undefined, undefined, undefined, undefined, stim/blank.png, stim/incongRight.png, right, 0, 3, 0, 3, 0, 1, 2, 2, 0, 96, 27, 1, 95, stim/blank.png, stim/incongRight.png, right, 0, 2, 0, 96, 27, 1, 95, stim/blank.png, stim/incongRight.png, right, 0, 2, 0, 96, 27, 1, 95, stim/blank.png, stim/incongRight.png, right, 0, cs210_June, 001, 2019-02-11_12h19.49.940, ANT, 3.0.0b12, 60
1.2500000000000007, right, 1, 1.0629999999999882, undefined, undefined, undefined, undefined, undefined, undefined, undefined, undefined, stim/centre.png, stim/incongRight.png, right, 0, 3, 0, 3, 0, 1, 2, 2, 0, 96, 26, 1, 95, stim/centre.png, stim/incongRight.png, right, 0, 2, 0, 96, 26, 1, 95, stim/centre.png, stim/incongRight.png, right, 0, 2, 0, 96, 26, 1, 95, stim/centre.png, stim/incongRight.png, right, 0, cs210_June, 001, 2019-02-11_12h19.49.940, ANT, 3.0.0b12, 60
1.2000000000000006, left, 1, 1.0460000000000491, undefined, undefined, undefined, undefined, undefined, undefined, undefined, undefined, stim/both.png, stim/neutralLeft.png, left, 0, 3, 0, 3, 0, 1, 2, 2, 0, 96, 33, 1, 95, stim/both.png, stim/neutralLeft.png, left, 0, 2, 0, 96, 33, 1, 95, stim/both.png, stim/neutralLeft.png, left, 0, 2, 0, 96, 33, 1, 95, stim/both.png, stim/neutralLeft.png, left, 0, cs210_June, 001, 2019-02-11_12h19.49.940, ANT, 3.0.0b12, 60
0.6000000000000001, right, 1, 1.032000000000039, undefined, undefined, undefined, undefined, undefined, undefined, undefined, undefined, stim/both.png, stim/incongRight.png, right, 0, 3, 0, 3, 0, 1, 2, 2, 0, 96, 25, 1, 95, stim/both.png, stim/incongRight.png, right, 0, 2, 0, 96, 25, 1, 95, stim/both.png, stim/incongRight.png, right, 0, 2, 0, 96, 25, 1, 95, stim/both.png, stim/incongRight.png, right, 0, cs210_June, 001, 2019-02-11_12h19.49.940, ANT, 3.0.0b12, 60
1.3000000000000007, left, 0, 1.01299999999992, undefined, undefined, undefined, undefined, undefined, undefined, undefined, undefined, stim/both.png, stim/incongLeft.png, right, 180, 3, 0, 3, 0, 1, 2, 2, 0, 96, 21, 1, 95, stim/both.png, stim/incongLeft.png, right, 180, 2, 0, 96, 21, 1, 95, stim/both.png, stim/incongLeft.png, right, 180, 2, 0, 96, 21, 1, 95, stim/both.png, stim/incongLeft.png, right, 180, cs210_June, 001, 2019-02-11_12h19.49.940, ANT, 3.0.0b12, 60
0.6000000000000001, right, 1, 0.9959999999999809, undefined, undefined, undefined, undefined, undefined, undefined, undefined, undefined, stim/centre.png, stim/congLeft.png, right, 180, 3, 0, 3, 0, 1, 2, 2, 0, 96, 6, 1, 95, stim/centre.png, stim/congLeft.png, right, 180, 2, 0, 96, 6, 1, 95, stim/centre.png, stim/congLeft.png, right, 180, 2, 0, 96, 6, 1, 95, stim/centre.png, stim/congLeft.png, right, 180, cs210_June, 001, 2019-02-11_12h19.49.940, ANT, 3.0.0b12, 60
0.9500000000000004, left, 1, 1.0919999999999845, undefined, undefined, undefined, undefined, undefined, undefined, undefined, undefined, stim/blank.png, stim/neutralRight.png, left, 180, 3, 0, 3, 0, 1, 2, 2, 0, 96, 47, 1, 95, stim/blank.png, stim/neutralRight.png, left, 180, 2, 0, 96, 47, 1, 95, stim/blank.png, stim/neutralRight.png, left, 180, 2, 0, 96, 47, 1, 95, stim/blank.png, stim/neutralRight.png, left, 180, cs210_June, 001, 2019-02-11_12h19.49.940, ANT, 3.0.0b12, 60
1.1000000000000005, right, 1, 1.09699999999998, undefined, undefined, undefined, undefined, undefined, undefined, undefined, undefined, stim/centre.png, stim/incongLeft.png, right, 180, 3, 0, 3, 0, 1, 2, 2, 0, 96, 22, 1, 95, stim/centre.png, stim/incongLeft.png, right, 180, 2, 0, 96, 22, 1, 95, stim/centre.png, stim/incongLeft.png, right, 180, 2, 0, 96, 22, 1, 95, stim/centre.png, stim/incongLeft.png, right, 180, cs210_June, 001, 2019-02-11_12h19.49.940, ANT, 3.0.0b12, 60
0.5, left, 1, 1.00100000000009, undefined, undefined, undefined, undefined, undefined, undefined, undefined, undefined, stim/blank.png, stim/congRight.png, left, 180, 3, 0, 3, 0, 1, 2, 2, 0, 96, 15, 1, 95, stim/blank.png, stim/congRight.png, left, 180, 2, 0, 96, 15, 1, 95, stim/blank.png, stim/congRight.png, left, 180, 2, 0, 96, 15, 1, 95, stim/blank.png, stim/congRight.png, left, 180, cs210_June, 001, 2019-02-11_12h19.49.940, ANT, 3.0.0b12, 60
0.6000000000000001, left, 1, 1.1140000000000327, undefined, undefined, undefined, undefined, undefined, undefined, undefined, undefined, stim/blank.png, stim/incongRight.png, left, 180, 3, 0, 3, 0, 1, 2, 2, 0, 96, 31, 1, 95, stim/blank.png, stim/incongRight.png, left, 180, 2, 0, 96, 31, 1, 95, stim/blank.png, stim/incongRight.png, left, 180, 2, 0, 96, 31, 1, 95, stim/blank.png, stim/incongRight.png, left, 180, cs210_June, 001, 2019-02-11_12h19.49.940, ANT, 3.0.0b12, 60
0.6000000000000001, left, 1, 1.1140000000000327, undefined, undefined, undefined, undefined, undefined, undefined, undefined, undefined, stim/both.png, stim/incongRight.png, left, 180, 3, 0, 3, 0, 1, 2, 2, 0, 96, 29, 1, 95, stim/both.png, stim/incongRight.png, left, 180, 2, 0, 96, 29, 1, 95, stim/both.png, stim/incongRight.png, left, 180, 2, 0, 96, 29, 1, 95, stim/both.png, stim/incongRight.png, left, 180, cs210_June, 001, 2019-02-11_12h19.49.940, ANT, 3.0.0b12, 60
1.0000000000000004, right, 1, 1.1309999999999718, undefined, undefined, undefined, undefined, undefined, undefined, undefined, undefined, stim/both.png, stim/congLeft.png, right, 180, 3, 0, 3, 0, 1, 2, 2, 0, 96, 5, 1, 95, stim/both.png, stim/congLeft.png, right, 180, 2, 0, 96, 5, 1, 95, stim/both.png, stim/congLeft.png, right, 180, 2, 0, 96, 5, 1, 95, stim/both.png, stim/congLeft.png, right, 180, cs210_June, 001, 2019-02-11_12h19.49.940, ANT, 3.0.0b12, 60
0.8000000000000003, left, 1, 1.01400000000001, undefined, undefined, undefined, undefined, undefined, undefined, undefined, undefined, stim/centre.png, stim/neutralLeft.png, left, 0, 3, 0, 3, 0, 1, 2, 2, 0, 96, 34, 1, 95, stim/centre.png, stim/neutralLeft.png, left, 0, 2, 0, 96, 34, 1, 95, stim/centre.png, stim/neutralLeft.png, left, 0, 2, 0, 96, 34, 1, 95, stim/centre.png, stim/neutralLeft.png, left, 0, cs210_June, 001, 2019-02-11_12h19.49.940, ANT, 3.0.0b12, 60
0.9500000000000004, right, 1, 1.0460000000000491, undefined, undefined, undefined, undefined, undefined, undefined, undefined, undefined, stim/blank.png, stim/congRight.png, right, 0, 3, 0, 3, 0, 1, 2, 2, 0, 96, 11, 1, 95, stim/blank.png, stim/congRight.png, right, 0, 2, 0, 96, 11, 1, 95, stim/blank.png, stim/congRight.png, right, 0, 2, 0, 96, 11, 1, 95, stim/blank.png, stim/congRight.png, right, 0, cs210_June, 001, 2019-02-11_12h19.49.940, ANT, 3.0.0b12, 60
0.6000000000000001, left, 1, 1.1309999999999718, undefined, undefined, undefined, undefined, undefined, undefined, undefined, undefined, stim/centre.png, stim/incongLeft.png, left, 0, 3, 0, 3, 0, 1, 2, 2, 0, 96, 18, 1, 95, stim/centre.png, stim/incongLeft.png, left, 0, 2, 0, 96, 18, 1, 95, stim/centre.png, stim/incongLeft.png, left, 0, 2, 0, 96, 18, 1, 95, stim/centre.png, stim/incongLeft.png, left, 0, cs210_June, 001, 2019-02-11_12h19.49.940, ANT, 3.0.0b12, 60
0.9000000000000004, left, 1, 1.09699999999998, undefined, undefined, undefined, undefined, undefined, undefined, undefined, undefined, stim/both.png, stim/congLeft.png, left, 0, 3, 0, 3, 0, 1, 2, 2, 0, 96, 1, 1, 95, stim/both.png, stim/congLeft.png, left, 0, 2, 0, 96, 1, 1, 95, stim/both.png, stim/congLeft.png, left, 0, 2, 0, 96, 1, 1, 95, stim/both.png, stim/congLeft.png, left, 0, cs210_June, 001, 2019-02-11_12h19.49.940, ANT, 3.0.0b12, 60
0.5, left, 1, 1.2630000000000337, undefined, undefined, undefined, undefined, undefined, undefined, undefined, undefined, stim/upper.png, stim/incongLeft.png, left, 0, 3, 0, 3, 0, 1, 2, 2, 0, 96, 16, 1, 95, stim/upper.png, stim/incongLeft.png, left, 0, 2, 0, 96, 16, 1, 95, stim/upper.png, stim/incongLeft.png, left, 0, 2, 0, 96, 16, 1, 95, stim/upper.png, stim/incongLeft.png, left, 0, cs210_June, 001, 2019-02-11_12h19.49.940, ANT, 3.0.0b12, 60
0.55, left, 1, 1.0440000000000964, undefined, undefined, undefined, undefined, undefined, undefined, undefined, undefined, stim/lower.png, stim/neutralRight.png, left, 180, 3, 0, 3, 0, 1, 2, 2, 0, 96, 44, 1, 95, stim/lower.png, stim/neutralRight.png, left, 180, 2, 0, 96, 44, 1, 95, stim/lower.png, stim/neutralRight.png, left, 180, 2, 0, 96, 44, 1, 95, stim/lower.png, stim/neutralRight.png, left, 180, cs210_June, 001, 2019-02-11_12h19.49.940, ANT, 3.0.0b12, 60
0.9500000000000004, right, 1, 1.0499999999999545, undefined, undefined, undefined, undefined, undefined, undefined, undefined, undefined, stim/centre.png, stim/neutralRight.png, right, 0, 3, 0, 3, 0, 1, 2, 2, 0, 96, 42, 1, 95, stim/centre.png, stim/neutralRight.png, right, 0, 2, 0, 96, 42, 1, 95, stim/centre.png, stim/neutralRight.png, right, 0, 2, 0, 96, 42, 1, 95, stim/centre.png, stim/neutralRight.png, right, 0, cs210_June, 001, 2019-02-11_12h19.49.940, ANT, 3.0.0b12, 60
