fixDuration,resp.keys,resp.corr,resp.rt,pracLoop.thisRepN,pracLoop.thisTrialN,pracLoop.thisN,pracLoop.thisIndex,pracLoop.ran,pracLoop.order,cue,tar,corrAns,targOrientation,participant,session,date,expName,psychopyVersion,frameRate,instResp.keys,instResp.rt,blockLoop.thisRepN,blockLoop.thisTrialN,blockLoop.thisN,blockLoop.thisIndex,blockLoop.ran,blockLoop.order,mainLoop.thisRepN,mainLoop.thisTrialN,mainLoop.thisN,mainLoop.thisIndex,mainLoop.ran,mainLoop.order
0.4,right,1,1.529999971,1,0,24,6,1,23,stim/centre.png,stim/congLeft.png,right,180,j,001,2019-12-18_12h23.37.859,ANT,3.1.3,60,,,,,,,,,,,,,,
0.8,left,1,0.414000034,1,0,24,14,1,23,stim/centre.png,stim/congRight.png,left,180,j,001,2019-12-18_12h23.37.859,ANT,3.1.3,60,,,,,,,,,,,,,,
0.55,right,0,0.546999931,1,0,24,19,1,23,stim/blank.png,stim/incongLeft.png,left,0,j,001,2019-12-18_12h23.37.859,ANT,3.1.3,60,,,,,,,,,,,,,,
1.45,left,1,0.744999886,1,0,24,1,1,23,stim/both.png,stim/congLeft.png,left,0,j,001,2019-12-18_12h23.37.859,ANT,3.1.3,60,,,,,,,,,,,,,,
0.8,right,1,0.713999987,1,0,24,7,1,23,stim/blank.png,stim/congLeft.png,right,180,j,001,2019-12-18_12h23.37.859,ANT,3.1.3,60,,,,,,,,,,,,,,
0.45,left,1,0.58100009,1,0,24,3,1,23,stim/blank.png,stim/congLeft.png,left,0,j,001,2019-12-18_12h23.37.859,ANT,3.1.3,60,,,,,,,,,,,,,,
0.9,left,1,0.595000029,1,0,24,15,1,23,stim/blank.png,stim/congRight.png,left,180,j,001,2019-12-18_12h23.37.859,ANT,3.1.3,60,,,,,,,,,,,,,,
1.1,left,0,0.480999947,1,0,24,20,1,23,stim/lower.png,stim/incongLeft.png,right,180,j,001,2019-12-18_12h23.37.859,ANT,3.1.3,60,,,,,,,,,,,,,,
1.35,left,1,1.013999939,1,0,24,18,1,23,stim/centre.png,stim/incongLeft.png,left,0,j,001,2019-12-18_12h23.37.859,ANT,3.1.3,60,,,,,,,,,,,,,,
0.6,right,1,0.796999931,1,0,24,21,1,23,stim/both.png,stim/incongLeft.png,right,180,j,001,2019-12-18_12h23.37.859,ANT,3.1.3,60,,,,,,,,,,,,,,
0.45,right,1,0.647000074,1,0,24,5,1,23,stim/both.png,stim/congLeft.png,right,180,j,001,2019-12-18_12h23.37.859,ANT,3.1.3,60,,,,,,,,,,,,,,
1.3,right,1,0.714999914,1,0,24,22,1,23,stim/centre.png,stim/incongLeft.png,right,180,j,001,2019-12-18_12h23.37.859,ANT,3.1.3,60,,,,,,,,,,,,,,
0.4,right,1,0.544000149,1,0,24,9,1,23,stim/both.png,stim/congRight.png,right,0,j,001,2019-12-18_12h23.37.859,ANT,3.1.3,60,,,,,,,,,,,,,,
1.15,left,1,0.680999994,1,0,24,16,1,23,stim/upper.png,stim/incongLeft.png,left,0,j,001,2019-12-18_12h23.37.859,ANT,3.1.3,60,,,,,,,,,,,,,,
0.6,right,1,0.582000017,1,0,24,8,1,23,stim/upper.png,stim/congRight.png,right,0,j,001,2019-12-18_12h23.37.859,ANT,3.1.3,60,,,,,,,,,,,,,,
0.55,left,1,0.513999939,1,0,24,2,1,23,stim/centre.png,stim/congLeft.png,left,0,j,001,2019-12-18_12h23.37.859,ANT,3.1.3,60,,,,,,,,,,,,,,
1.55,right,1,0.630000114,1,0,24,4,1,23,stim/lower.png,stim/congLeft.png,right,180,j,001,2019-12-18_12h23.37.859,ANT,3.1.3,60,,,,,,,,,,,,,,
1.15,left,1,0.597000122,1,0,24,13,1,23,stim/both.png,stim/congRight.png,left,180,j,001,2019-12-18_12h23.37.859,ANT,3.1.3,60,,,,,,,,,,,,,,
0.6,left,1,0.480000019,1,0,24,0,1,23,stim/upper.png,stim/congLeft.png,left,0,j,001,2019-12-18_12h23.37.859,ANT,3.1.3,60,,,,,,,,,,,,,,
1.4,right,1,0.726999998,1,0,24,23,1,23,stim/blank.png,stim/incongLeft.png,right,180,j,001,2019-12-18_12h23.37.859,ANT,3.1.3,60,,,,,,,,,,,,,,
1.3,left,1,0.647000074,1,0,24,17,1,23,stim/both.png,stim/incongLeft.png,left,0,j,001,2019-12-18_12h23.37.859,ANT,3.1.3,60,,,,,,,,,,,,,,
0.55,right,1,0.647000074,1,0,24,10,1,23,stim/centre.png,stim/congRight.png,right,0,j,001,2019-12-18_12h23.37.859,ANT,3.1.3,60,,,,,,,,,,,,,,
0.85,right,1,0.447000027,1,0,24,11,1,23,stim/blank.png,stim/congRight.png,right,0,j,001,2019-12-18_12h23.37.859,ANT,3.1.3,60,,,,,,,,,,,,,,
1.5,left,1,0.714999914,1,0,24,12,1,23,stim/lower.png,stim/congRight.png,left,180,j,001,2019-12-18_12h23.37.859,ANT,3.1.3,60,,,,,,,,,,,,,,
1.25,right,1,0.464000225,,,,,,,stim/both.png,stim/neutralRight.png,right,0,j,001,2019-12-18_12h23.37.859,ANT,3.1.3,60,space,9.959000111,3,0,3,0,1,2,2,0,96,41,1,95
0.8,right,1,0.595999956,,,,,,,stim/blank.png,stim/neutralLeft.png,right,180,j,001,2019-12-18_12h23.37.859,ANT,3.1.3,60,,,3,0,3,0,1,2,2,0,96,39,1,95
1.25,left,1,0.697000027,,,,,,,stim/centre.png,stim/incongRight.png,left,180,j,001,2019-12-18_12h23.37.859,ANT,3.1.3,60,,,3,0,3,0,1,2,2,0,96,30,1,95
0.8,left,1,0.497999907,,,,,,,stim/both.png,stim/congLeft.png,left,0,j,001,2019-12-18_12h23.37.859,ANT,3.1.3,60,,,3,0,3,0,1,2,2,0,96,1,1,95
1.1,right,1,0.631000042,,,,,,,stim/centre.png,stim/incongLeft.png,right,180,j,001,2019-12-18_12h23.37.859,ANT,3.1.3,60,,,3,0,3,0,1,2,2,0,96,22,1,95
1.4,left,1,0.527000189,,,,,,,stim/blank.png,stim/congLeft.png,left,0,j,001,2019-12-18_12h23.37.859,ANT,3.1.3,60,,,3,0,3,0,1,2,2,0,96,3,1,95
1.55,left,1,0.648000002,,,,,,,stim/centre.png,stim/neutralRight.png,left,180,j,001,2019-12-18_12h23.37.859,ANT,3.1.3,60,,,3,0,3,0,1,2,2,0,96,46,1,95
0.55,right,1,0.480999947,,,,,,,stim/upper.png,stim/congRight.png,right,0,j,001,2019-12-18_12h23.37.859,ANT,3.1.3,60,,,3,0,3,0,1,2,2,0,96,8,1,95
0.4,left,1,0.513999939,,,,,,,stim/blank.png,stim/congRight.png,left,180,j,001,2019-12-18_12h23.37.859,ANT,3.1.3,60,,,3,0,3,0,1,2,2,0,96,15,1,95
0.6,left,1,0.430999994,,,,,,,stim/both.png,stim/neutralRight.png,left,180,j,001,2019-12-18_12h23.37.859,ANT,3.1.3,60,,,3,0,3,0,1,2,2,0,96,45,1,95
0.9,right,1,0.597000122,,,,,,,stim/both.png,stim/incongLeft.png,right,180,j,001,2019-12-18_12h23.37.859,ANT,3.1.3,60,,,3,0,3,0,1,2,2,0,96,21,1,95
1.25,left,1,0.513999939,,,,,,,stim/both.png,stim/neutralLeft.png,left,0,j,001,2019-12-18_12h23.37.859,ANT,3.1.3,60,,,3,0,3,0,1,2,2,0,96,33,1,95
0.45,left,1,0.513999939,,,,,,,stim/upper.png,stim/congLeft.png,left,0,j,001,2019-12-18_12h23.37.859,ANT,3.1.3,60,,,3,0,3,0,1,2,2,0,96,0,1,95
1.05,left,1,0.565000057,,,,,,,stim/lower.png,stim/neutralRight.png,left,180,j,001,2019-12-18_12h23.37.859,ANT,3.1.3,60,,,3,0,3,0,1,2,2,0,96,44,1,95
0.55,right,1,0.531000137,,,,,,,stim/both.png,stim/congRight.png,right,0,j,001,2019-12-18_12h23.37.859,ANT,3.1.3,60,,,3,0,3,0,1,2,2,0,96,9,1,95
1.1,right,1,0.582000017,,,,,,,stim/lower.png,stim/incongLeft.png,right,180,j,001,2019-12-18_12h23.37.859,ANT,3.1.3,60,,,3,0,3,0,1,2,2,0,96,20,1,95
1.25,left,1,0.480000019,,,,,,,stim/centre.png,stim/congLeft.png,left,0,j,001,2019-12-18_12h23.37.859,ANT,3.1.3,60,,,3,0,3,0,1,2,2,0,96,2,1,95
0.85,left,1,0.548000097,,,,,,,stim/centre.png,stim/congRight.png,left,180,j,001,2019-12-18_12h23.37.859,ANT,3.1.3,60,,,3,0,3,0,1,2,2,0,96,14,1,95
0.8,right,1,0.680999994,,,,,,,stim/blank.png,stim/incongLeft.png,right,180,j,001,2019-12-18_12h23.37.859,ANT,3.1.3,60,,,3,0,3,0,1,2,2,0,96,23,1,95
0.6,left,1,0.56400013,,,,,,,stim/upper.png,stim/neutralLeft.png,left,0,j,001,2019-12-18_12h23.37.859,ANT,3.1.3,60,,,3,0,3,0,1,2,2,0,96,32,1,95
0.95,left,1,0.647000074,,,,,,,stim/both.png,stim/congRight.png,left,180,j,001,2019-12-18_12h23.37.859,ANT,3.1.3,60,,,3,0,3,0,1,2,2,0,96,13,1,95
1.55,right,0,0.546999931,,,,,,,stim/blank.png,stim/incongRight.png,left,180,j,001,2019-12-18_12h23.37.859,ANT,3.1.3,60,,,3,0,3,0,1,2,2,0,96,31,1,95
0.85,right,1,0.746999979,,,,,,,stim/blank.png,stim/congRight.png,right,0,j,001,2019-12-18_12h23.37.859,ANT,3.1.3,60,,,3,0,3,0,1,2,2,0,96,11,1,95
0.75,left,1,0.597999811,,,,,,,stim/both.png,stim/incongLeft.png,left,0,j,001,2019-12-18_12h23.37.859,ANT,3.1.3,60,,,3,0,3,0,1,2,2,0,96,17,1,95
0.75,right,1,0.680999994,,,,,,,stim/centre.png,stim/neutralRight.png,right,0,j,001,2019-12-18_12h23.37.859,ANT,3.1.3,60,,,3,0,3,0,1,2,2,0,96,42,1,95
0.6,right,1,0.644999981,,,,,,,stim/blank.png,stim/incongRight.png,right,0,j,001,2019-12-18_12h23.37.859,ANT,3.1.3,60,,,3,0,3,0,1,2,2,0,96,27,1,95
1,right,1,0.612999916,,,,,,,stim/blank.png,stim/congLeft.png,right,180,j,001,2019-12-18_12h23.37.859,ANT,3.1.3,60,,,3,0,3,0,1,2,2,0,96,7,1,95
1.3,left,1,0.795000076,,,,,,,stim/lower.png,stim/incongRight.png,left,180,j,001,2019-12-18_12h23.37.859,ANT,3.1.3,60,,,3,0,3,0,1,2,2,0,96,28,1,95
1,right,1,0.646999836,,,,,,,stim/upper.png,stim/neutralRight.png,right,0,j,001,2019-12-18_12h23.37.859,ANT,3.1.3,60,,,3,0,3,0,1,2,2,0,96,40,1,95
1.45,right,1,0.596999884,,,,,,,stim/lower.png,stim/neutralLeft.png,right,180,j,001,2019-12-18_12h23.37.859,ANT,3.1.3,60,,,3,0,3,0,1,2,2,0,96,36,1,95
1.1,left,1,0.613999844,,,,,,,stim/blank.png,stim/neutralRight.png,left,180,j,001,2019-12-18_12h23.37.859,ANT,3.1.3,60,,,3,0,3,0,1,2,2,0,96,47,1,95
0.65,right,1,0.680999994,,,,,,,stim/lower.png,stim/congLeft.png,right,180,j,001,2019-12-18_12h23.37.859,ANT,3.1.3,60,,,3,0,3,0,1,2,2,0,96,4,1,95
0.95,left,1,0.661999941,,,,,,,stim/centre.png,stim/incongLeft.png,left,0,j,001,2019-12-18_12h23.37.859,ANT,3.1.3,60,,,3,0,3,0,1,2,2,0,96,18,1,95
0.65,right,1,0.529999971,,,,,,,stim/centre.png,stim/congLeft.png,right,180,j,001,2019-12-18_12h23.37.859,ANT,3.1.3,60,,,3,0,3,0,1,2,2,0,96,6,1,95
0.65,right,1,0.631000042,,,,,,,stim/both.png,stim/incongRight.png,right,0,j,001,2019-12-18_12h23.37.859,ANT,3.1.3,60,,,3,0,3,0,1,2,2,0,96,25,1,95
0.85,left,1,0.680000067,,,,,,,stim/blank.png,stim/incongLeft.png,left,0,j,001,2019-12-18_12h23.37.859,ANT,3.1.3,60,,,3,0,3,0,1,2,2,0,96,19,1,95
0.85,left,1,0.713999987,,,,,,,stim/both.png,stim/incongRight.png,left,180,j,001,2019-12-18_12h23.37.859,ANT,3.1.3,60,,,3,0,3,0,1,2,2,0,96,29,1,95
0.45,left,1,0.646000147,,,,,,,stim/upper.png,stim/incongLeft.png,left,0,j,001,2019-12-18_12h23.37.859,ANT,3.1.3,60,,,3,0,3,0,1,2,2,0,96,16,1,95
0.5,left,1,0.513999939,,,,,,,stim/blank.png,stim/neutralLeft.png,left,0,j,001,2019-12-18_12h23.37.859,ANT,3.1.3,60,,,3,0,3,0,1,2,2,0,96,35,1,95
1.4,right,1,0.61500001,,,,,,,stim/upper.png,stim/incongRight.png,right,0,j,001,2019-12-18_12h23.37.859,ANT,3.1.3,60,,,3,0,3,0,1,2,2,0,96,24,1,95
0.45,right,1,0.481000185,,,,,,,stim/centre.png,stim/congRight.png,right,0,j,001,2019-12-18_12h23.37.859,ANT,3.1.3,60,,,3,0,3,0,1,2,2,0,96,10,1,95
1.3,right,1,0.614000082,,,,,,,stim/both.png,stim/congLeft.png,right,180,j,001,2019-12-18_12h23.37.859,ANT,3.1.3,60,,,3,0,3,0,1,2,2,0,96,5,1,95
0.85,right,1,0.563000202,,,,,,,stim/both.png,stim/neutralLeft.png,right,180,j,001,2019-12-18_12h23.37.859,ANT,3.1.3,60,,,3,0,3,0,1,2,2,0,96,37,1,95
0.95,right,1,0.661000013,,,,,,,stim/centre.png,stim/incongRight.png,right,0,j,001,2019-12-18_12h23.37.859,ANT,3.1.3,60,,,3,0,3,0,1,2,2,0,96,26,1,95
0.9,left,1,0.611999989,,,,,,,stim/centre.png,stim/neutralLeft.png,left,0,j,001,2019-12-18_12h23.37.859,ANT,3.1.3,60,,,3,0,3,0,1,2,2,0,96,34,1,95
0.6,right,1,0.880999804,,,,,,,stim/centre.png,stim/neutralLeft.png,right,180,j,001,2019-12-18_12h23.37.859,ANT,3.1.3,60,,,3,0,3,0,1,2,2,0,96,38,1,95
0.85,left,1,0.811000109,,,,,,,stim/lower.png,stim/congRight.png,left,180,j,001,2019-12-18_12h23.37.859,ANT,3.1.3,60,,,3,0,3,0,1,2,2,0,96,12,1,95
0.65,right,1,0.812999964,,,,,,,stim/blank.png,stim/neutralRight.png,right,0,j,001,2019-12-18_12h23.37.859,ANT,3.1.3,60,,,3,0,3,0,1,2,2,0,96,43,1,95
1.1,left,1,0.644000053,,,,,,,stim/both.png,stim/neutralLeft.png,left,0,j,001,2019-12-18_12h23.37.859,ANT,3.1.3,60,,,3,0,3,0,1,2,2,0,96,33,1,95
1,left,1,0.746000051,,,,,,,stim/centre.png,stim/incongRight.png,left,180,j,001,2019-12-18_12h23.37.859,ANT,3.1.3,60,,,3,0,3,0,1,2,2,0,96,30,1,95
1.2,right,1,0.562000036,,,,,,,stim/both.png,stim/congLeft.png,right,180,j,001,2019-12-18_12h23.37.859,ANT,3.1.3,60,,,3,0,3,0,1,2,2,0,96,5,1,95
0.7,right,1,0.644999981,,,,,,,stim/both.png,stim/incongRight.png,right,0,j,001,2019-12-18_12h23.37.859,ANT,3.1.3,60,,,3,0,3,0,1,2,2,0,96,25,1,95
0.6,right,1,0.511999846,,,,,,,stim/blank.png,stim/neutralLeft.png,right,180,j,001,2019-12-18_12h23.37.859,ANT,3.1.3,60,,,3,0,3,0,1,2,2,0,96,39,1,95
0.75,right,1,0.628999949,,,,,,,stim/lower.png,stim/incongLeft.png,right,180,j,001,2019-12-18_12h23.37.859,ANT,3.1.3,60,,,3,0,3,0,1,2,2,0,96,20,1,95
1.45,right,1,0.496999979,,,,,,,stim/lower.png,stim/neutralLeft.png,right,180,j,001,2019-12-18_12h23.37.859,ANT,3.1.3,60,,,3,0,3,0,1,2,2,0,96,36,1,95
1.45,right,1,0.697000027,,,,,,,stim/blank.png,stim/congRight.png,right,0,j,001,2019-12-18_12h23.37.859,ANT,3.1.3,60,,,3,0,3,0,1,2,2,0,96,11,1,95
0.65,left,1,0.644999981,,,,,,,stim/blank.png,stim/neutralRight.png,left,180,j,001,2019-12-18_12h23.37.859,ANT,3.1.3,60,,,3,0,3,0,1,2,2,0,96,47,1,95
0.7,left,1,0.628000021,,,,,,,stim/blank.png,stim/congLeft.png,left,0,j,001,2019-12-18_12h23.37.859,ANT,3.1.3,60,,,3,0,3,0,1,2,2,0,96,3,1,95
0.6,right,1,0.713000059,,,,,,,stim/centre.png,stim/incongRight.png,right,0,j,001,2019-12-18_12h23.37.859,ANT,3.1.3,60,,,3,0,3,0,1,2,2,0,96,26,1,95
1.1,right,1,0.532000065,,,,,,,stim/both.png,stim/neutralRight.png,right,0,j,001,2019-12-18_12h23.37.859,ANT,3.1.3,60,,,3,0,3,0,1,2,2,0,96,41,1,95
1.35,right,1,0.628000021,,,,,,,stim/centre.png,stim/congLeft.png,right,180,j,001,2019-12-18_12h23.37.859,ANT,3.1.3,60,,,3,0,3,0,1,2,2,0,96,6,1,95
0.6,right,1,0.578000069,,,,,,,stim/blank.png,stim/incongLeft.png,right,180,j,001,2019-12-18_12h23.37.859,ANT,3.1.3,60,,,3,0,3,0,1,2,2,0,96,23,1,95
1.2,left,1,0.712000132,,,,,,,stim/centre.png,stim/incongLeft.png,left,0,j,001,2019-12-18_12h23.37.859,ANT,3.1.3,60,,,3,0,3,0,1,2,2,0,96,18,1,95
0.65,left,1,0.628000021,,,,,,,stim/centre.png,stim/congLeft.png,left,0,j,001,2019-12-18_12h23.37.859,ANT,3.1.3,60,,,3,0,3,0,1,2,2,0,96,2,1,95
0.9,left,1,0.694999933,,,,,,,stim/lower.png,stim/congRight.png,left,180,j,001,2019-12-18_12h23.37.859,ANT,3.1.3,60,,,3,0,3,0,1,2,2,0,96,12,1,95
0.65,left,1,0.696000099,,,,,,,stim/lower.png,stim/incongRight.png,left,180,j,001,2019-12-18_12h23.37.859,ANT,3.1.3,60,,,3,0,3,0,1,2,2,0,96,28,1,95
0.4,right,0,0.513000011,,,,,,,stim/blank.png,stim/incongLeft.png,left,0,j,001,2019-12-18_12h23.37.859,ANT,3.1.3,60,,,3,0,3,0,1,2,2,0,96,19,1,95
1.25,right,1,0.611999989,,,,,,,stim/upper.png,stim/neutralRight.png,right,0,j,001,2019-12-18_12h23.37.859,ANT,3.1.3,60,,,3,0,3,0,1,2,2,0,96,40,1,95
0.75,right,1,0.680999994,,,,,,,stim/centre.png,stim/incongLeft.png,right,180,j,001,2019-12-18_12h23.37.859,ANT,3.1.3,60,,,3,0,3,0,1,2,2,0,96,22,1,95
0.65,left,1,0.546999931,,,,,,,stim/upper.png,stim/neutralLeft.png,left,0,j,001,2019-12-18_12h23.37.859,ANT,3.1.3,60,,,3,0,3,0,1,2,2,0,96,32,1,95
0.5,left,1,0.578999996,,,,,,,stim/blank.png,stim/neutralLeft.png,left,0,j,001,2019-12-18_12h23.37.859,ANT,3.1.3,60,,,3,0,3,0,1,2,2,0,96,35,1,95
1.05,left,1,0.680000067,,,,,,,stim/blank.png,stim/incongRight.png,left,180,j,001,2019-12-18_12h23.37.859,ANT,3.1.3,60,,,3,0,3,0,1,2,2,0,96,31,1,95
1.55,left,1,0.479000092,,,,,,,stim/centre.png,stim/congRight.png,left,180,j,001,2019-12-18_12h23.37.859,ANT,3.1.3,60,,,3,0,3,0,1,2,2,0,96,14,1,95
0.8,left,1,0.661999941,,,,,,,stim/upper.png,stim/incongLeft.png,left,0,j,001,2019-12-18_12h23.37.859,ANT,3.1.3,60,,,3,0,3,0,1,2,2,0,96,16,1,95
0.65,left,1,0.463000059,,,,,,,stim/upper.png,stim/congLeft.png,left,0,j,001,2019-12-18_12h23.37.859,ANT,3.1.3,60,,,3,0,3,0,1,2,2,0,96,0,1,95
1.5,right,1,0.729000092,,,,,,,stim/blank.png,stim/neutralRight.png,right,0,j,001,2019-12-18_12h23.37.859,ANT,3.1.3,60,,,3,0,3,0,1,2,2,0,96,43,1,95
1.05,right,1,0.579999924,,,,,,,stim/lower.png,stim/congLeft.png,right,180,j,001,2019-12-18_12h23.37.859,ANT,3.1.3,60,,,3,0,3,0,1,2,2,0,96,4,1,95
0.5,right,1,0.562000036,,,,,,,stim/both.png,stim/neutralLeft.png,right,180,j,001,2019-12-18_12h23.37.859,ANT,3.1.3,60,,,3,0,3,0,1,2,2,0,96,37,1,95
0.9,left,1,0.644999981,,,,,,,stim/both.png,stim/neutralRight.png,left,180,j,001,2019-12-18_12h23.37.859,ANT,3.1.3,60,,,3,0,3,0,1,2,2,0,96,45,1,95
0.8,right,1,1.011999846,,,,,,,stim/blank.png,stim/congLeft.png,right,180,j,001,2019-12-18_12h23.37.859,ANT,3.1.3,60,,,3,0,3,0,1,2,2,0,96,7,1,95
0.85,right,1,0.545000076,,,,,,,stim/both.png,stim/congRight.png,right,0,j,001,2019-12-18_12h23.37.859,ANT,3.1.3,60,,,3,0,3,0,1,2,2,0,96,9,1,95
1.35,left,1,0.595000029,,,,,,,stim/both.png,stim/congRight.png,left,180,j,001,2019-12-18_12h23.37.859,ANT,3.1.3,60,,,3,0,3,0,1,2,2,0,96,13,1,95
0.65,right,1,0.696000099,,,,,,,stim/centre.png,stim/neutralRight.png,right,0,j,001,2019-12-18_12h23.37.859,ANT,3.1.3,60,,,3,0,3,0,1,2,2,0,96,42,1,95
1.3,right,1,0.562999964,,,,,,,stim/upper.png,stim/incongRight.png,right,0,j,001,2019-12-18_12h23.37.859,ANT,3.1.3,60,,,3,0,3,0,1,2,2,0,96,24,1,95
0.7,right,1,0.561999798,,,,,,,stim/centre.png,stim/neutralLeft.png,right,180,j,001,2019-12-18_12h23.37.859,ANT,3.1.3,60,,,3,0,3,0,1,2,2,0,96,38,1,95
1.3,left,1,0.628999949,,,,,,,stim/both.png,stim/incongRight.png,left,180,j,001,2019-12-18_12h23.37.859,ANT,3.1.3,60,,,3,0,3,0,1,2,2,0,96,29,1,95
0.65,left,1,0.562000036,,,,,,,stim/centre.png,stim/neutralRight.png,left,180,j,001,2019-12-18_12h23.37.859,ANT,3.1.3,60,,,3,0,3,0,1,2,2,0,96,46,1,95
0.75,left,0,0.529000044,,,,,,,stim/both.png,stim/incongLeft.png,right,180,j,001,2019-12-18_12h23.37.859,ANT,3.1.3,60,,,3,0,3,0,1,2,2,0,96,21,1,95
0.7,left,1,0.595999956,,,,,,,stim/both.png,stim/congLeft.png,left,0,j,001,2019-12-18_12h23.37.859,ANT,3.1.3,60,,,3,0,3,0,1,2,2,0,96,1,1,95
0.5,left,1,0.59800005,,,,,,,stim/both.png,stim/incongLeft.png,left,0,j,001,2019-12-18_12h23.37.859,ANT,3.1.3,60,,,3,0,3,0,1,2,2,0,96,17,1,95
0.85,left,1,0.512000084,,,,,,,stim/blank.png,stim/congRight.png,left,180,j,001,2019-12-18_12h23.37.859,ANT,3.1.3,60,,,3,0,3,0,1,2,2,0,96,15,1,95
1.4,left,1,0.546000004,,,,,,,stim/lower.png,stim/neutralRight.png,left,180,j,001,2019-12-18_12h23.37.859,ANT,3.1.3,60,,,3,0,3,0,1,2,2,0,96,44,1,95
0.55,right,1,0.429000139,,,,,,,stim/upper.png,stim/congRight.png,right,0,j,001,2019-12-18_12h23.37.859,ANT,3.1.3,60,,,3,0,3,0,1,2,2,0,96,8,1,95
0.45,left,1,0.579999924,,,,,,,stim/centre.png,stim/neutralLeft.png,left,0,j,001,2019-12-18_12h23.37.859,ANT,3.1.3,60,,,3,0,3,0,1,2,2,0,96,34,1,95
0.75,right,1,0.578000069,,,,,,,stim/centre.png,stim/congRight.png,right,0,j,001,2019-12-18_12h23.37.859,ANT,3.1.3,60,,,3,0,3,0,1,2,2,0,96,10,1,95
0.4,right,1,0.578999996,,,,,,,stim/blank.png,stim/incongRight.png,right,0,j,001,2019-12-18_12h23.37.859,ANT,3.1.3,60,,,3,0,3,0,1,2,2,0,96,27,1,95
,,,,,,,,,,,,,,j,001,2019-12-18_12h23.37.859,ANT,3.1.3,60,,,3,0,3,0,1,2,,,,,,
1.2,left,1,0.981000185,,,,,,,stim/lower.png,stim/incongRight.png,left,180,j,001,2019-12-18_12h23.37.859,ANT,3.1.3,60,,,3,0,3,0,1,2,2,0,96,28,1,95
1.05,right,1,0.577000141,,,,,,,stim/blank.png,stim/neutralRight.png,right,0,j,001,2019-12-18_12h23.37.859,ANT,3.1.3,60,,,3,0,3,0,1,2,2,0,96,43,1,95
1.5,left,1,0.496000051,,,,,,,stim/centre.png,stim/neutralRight.png,left,180,j,001,2019-12-18_12h23.37.859,ANT,3.1.3,60,,,3,0,3,0,1,2,2,0,96,46,1,95
0.8,right,1,0.511999846,,,,,,,stim/upper.png,stim/neutralRight.png,right,0,j,001,2019-12-18_12h23.37.859,ANT,3.1.3,60,,,3,0,3,0,1,2,2,0,96,40,1,95
0.75,right,1,0.496000051,,,,,,,stim/lower.png,stim/neutralLeft.png,right,180,j,001,2019-12-18_12h23.37.859,ANT,3.1.3,60,,,3,0,3,0,1,2,2,0,96,36,1,95
0.7,left,1,0.529000044,,,,,,,stim/both.png,stim/incongLeft.png,left,0,j,001,2019-12-18_12h23.37.859,ANT,3.1.3,60,,,3,0,3,0,1,2,2,0,96,17,1,95
0.4,left,1,0.611999989,,,,,,,stim/blank.png,stim/congRight.png,left,180,j,001,2019-12-18_12h23.37.859,ANT,3.1.3,60,,,3,0,3,0,1,2,2,0,96,15,1,95
1.35,left,1,0.644999981,,,,,,,stim/lower.png,stim/neutralRight.png,left,180,j,001,2019-12-18_12h23.37.859,ANT,3.1.3,60,,,3,0,3,0,1,2,2,0,96,44,1,95
0.4,right,1,0.812000036,,,,,,,stim/both.png,stim/incongLeft.png,right,180,j,001,2019-12-18_12h23.37.859,ANT,3.1.3,60,,,3,0,3,0,1,2,2,0,96,21,1,95
0.55,right,1,0.562000036,,,,,,,stim/both.png,stim/neutralRight.png,right,0,j,001,2019-12-18_12h23.37.859,ANT,3.1.3,60,,,3,0,3,0,1,2,2,0,96,41,1,95
0.45,left,1,0.614000082,,,,,,,stim/upper.png,stim/neutralLeft.png,left,0,j,001,2019-12-18_12h23.37.859,ANT,3.1.3,60,,,3,0,3,0,1,2,2,0,96,32,1,95
1,right,1,0.680000067,,,,,,,stim/centre.png,stim/congRight.png,right,0,j,001,2019-12-18_12h23.37.859,ANT,3.1.3,60,,,3,0,3,0,1,2,2,0,96,10,1,95
1.45,right,1,0.546000004,,,,,,,stim/centre.png,stim/neutralRight.png,right,0,j,001,2019-12-18_12h23.37.859,ANT,3.1.3,60,,,3,0,3,0,1,2,2,0,96,42,1,95
0.65,right,1,0.546000004,,,,,,,stim/both.png,stim/congLeft.png,right,180,j,001,2019-12-18_12h23.37.859,ANT,3.1.3,60,,,3,0,3,0,1,2,2,0,96,5,1,95
1.2,left,1,0.579999924,,,,,,,stim/blank.png,stim/neutralRight.png,left,180,j,001,2019-12-18_12h23.37.859,ANT,3.1.3,60,,,3,0,3,0,1,2,2,0,96,47,1,95
0.7,right,1,0.479000092,,,,,,,stim/centre.png,stim/congLeft.png,right,180,j,001,2019-12-18_12h23.37.859,ANT,3.1.3,60,,,3,0,3,0,1,2,2,0,96,6,1,95
0.85,right,1,0.661000013,,,,,,,stim/blank.png,stim/incongLeft.png,right,180,j,001,2019-12-18_12h23.37.859,ANT,3.1.3,60,,,3,0,3,0,1,2,2,0,96,23,1,95
1.35,right,1,0.544999838,,,,,,,stim/centre.png,stim/neutralLeft.png,right,180,j,001,2019-12-18_12h23.37.859,ANT,3.1.3,60,,,3,0,3,0,1,2,2,0,96,38,1,95
0.85,right,1,0.729000092,,,,,,,stim/centre.png,stim/incongRight.png,right,0,j,001,2019-12-18_12h23.37.859,ANT,3.1.3,60,,,3,0,3,0,1,2,2,0,96,26,1,95
0.8,right,1,0.529000044,,,,,,,stim/lower.png,stim/congLeft.png,right,180,j,001,2019-12-18_12h23.37.859,ANT,3.1.3,60,,,3,0,3,0,1,2,2,0,96,4,1,95
0.75,left,1,0.661999941,,,,,,,stim/centre.png,stim/neutralLeft.png,left,0,j,001,2019-12-18_12h23.37.859,ANT,3.1.3,60,,,3,0,3,0,1,2,2,0,96,34,1,95
1,left,1,0.630999804,,,,,,,stim/centre.png,stim/congLeft.png,left,0,j,001,2019-12-18_12h23.37.859,ANT,3.1.3,60,,,3,0,3,0,1,2,2,0,96,2,1,95
1.35,left,1,0.796999931,,,,,,,stim/blank.png,stim/incongLeft.png,left,0,j,001,2019-12-18_12h23.37.859,ANT,3.1.3,60,,,3,0,3,0,1,2,2,0,96,19,1,95
1,right,1,0.677999973,,,,,,,stim/blank.png,stim/neutralLeft.png,right,180,j,001,2019-12-18_12h23.37.859,ANT,3.1.3,60,,,3,0,3,0,1,2,2,0,96,39,1,95
1.35,left,1,0.562000036,,,,,,,stim/lower.png,stim/congRight.png,left,180,j,001,2019-12-18_12h23.37.859,ANT,3.1.3,60,,,3,0,3,0,1,2,2,0,96,12,1,95
0.75,right,1,0.713000059,,,,,,,stim/lower.png,stim/incongLeft.png,right,180,j,001,2019-12-18_12h23.37.859,ANT,3.1.3,60,,,3,0,3,0,1,2,2,0,96,20,1,95
1.55,right,1,0.544999838,,,,,,,stim/both.png,stim/incongRight.png,right,0,j,001,2019-12-18_12h23.37.859,ANT,3.1.3,60,,,3,0,3,0,1,2,2,0,96,25,1,95
1.15,left,1,0.629000187,,,,,,,stim/blank.png,stim/congLeft.png,left,0,j,001,2019-12-18_12h23.37.859,ANT,3.1.3,60,,,3,0,3,0,1,2,2,0,96,3,1,95
1,right,1,0.628999949,,,,,,,stim/blank.png,stim/congRight.png,right,0,j,001,2019-12-18_12h23.37.859,ANT,3.1.3,60,,,3,0,3,0,1,2,2,0,96,11,1,95
1.55,left,1,0.494999886,,,,,,,stim/both.png,stim/neutralLeft.png,left,0,j,001,2019-12-18_12h23.37.859,ANT,3.1.3,60,,,3,0,3,0,1,2,2,0,96,33,1,95
0.45,right,1,0.679000139,,,,,,,stim/blank.png,stim/incongRight.png,right,0,j,001,2019-12-18_12h23.37.859,ANT,3.1.3,60,,,3,0,3,0,1,2,2,0,96,27,1,95
0.8,left,1,0.663000107,,,,,,,stim/centre.png,stim/congRight.png,left,180,j,001,2019-12-18_12h23.37.859,ANT,3.1.3,60,,,3,0,3,0,1,2,2,0,96,14,1,95
0.4,left,1,0.961999893,,,,,,,stim/centre.png,stim/incongRight.png,left,180,j,001,2019-12-18_12h23.37.859,ANT,3.1.3,60,,,3,0,3,0,1,2,2,0,96,30,1,95
1.1,left,1,0.661999941,,,,,,,stim/both.png,stim/congRight.png,left,180,j,001,2019-12-18_12h23.37.859,ANT,3.1.3,60,,,3,0,3,0,1,2,2,0,96,13,1,95
1.5,left,1,0.629000187,,,,,,,stim/both.png,stim/neutralRight.png,left,180,j,001,2019-12-18_12h23.37.859,ANT,3.1.3,60,,,3,0,3,0,1,2,2,0,96,45,1,95
1.55,right,1,0.493999958,,,,,,,stim/both.png,stim/congRight.png,right,0,j,001,2019-12-18_12h23.37.859,ANT,3.1.3,60,,,3,0,3,0,1,2,2,0,96,9,1,95
0.95,left,1,0.595999956,,,,,,,stim/blank.png,stim/neutralLeft.png,left,0,j,001,2019-12-18_12h23.37.859,ANT,3.1.3,60,,,3,0,3,0,1,2,2,0,96,35,1,95
1.25,right,1,0.595000029,,,,,,,stim/upper.png,stim/incongRight.png,right,0,j,001,2019-12-18_12h23.37.859,ANT,3.1.3,60,,,3,0,3,0,1,2,2,0,96,24,1,95
0.9,right,0,0.462000132,,,,,,,stim/upper.png,stim/incongLeft.png,left,0,j,001,2019-12-18_12h23.37.859,ANT,3.1.3,60,,,3,0,3,0,1,2,2,0,96,16,1,95
0.85,right,1,0.861999989,,,,,,,stim/both.png,stim/neutralLeft.png,right,180,j,001,2019-12-18_12h23.37.859,ANT,3.1.3,60,,,3,0,3,0,1,2,2,0,96,37,1,95
1,right,1,0.544999838,,,,,,,stim/upper.png,stim/congRight.png,right,0,j,001,2019-12-18_12h23.37.859,ANT,3.1.3,60,,,3,0,3,0,1,2,2,0,96,8,1,95
0.95,right,1,0.546000004,,,,,,,stim/blank.png,stim/congLeft.png,right,180,j,001,2019-12-18_12h23.37.859,ANT,3.1.3,60,,,3,0,3,0,1,2,2,0,96,7,1,95
0.95,left,1,0.694999933,,,,,,,stim/both.png,stim/incongRight.png,left,180,j,001,2019-12-18_12h23.37.859,ANT,3.1.3,60,,,3,0,3,0,1,2,2,0,96,29,1,95
0.75,left,1,0.661999941,,,,,,,stim/blank.png,stim/incongRight.png,left,180,j,001,2019-12-18_12h23.37.859,ANT,3.1.3,60,,,3,0,3,0,1,2,2,0,96,31,1,95
1.2,left,1,0.578999996,,,,,,,stim/both.png,stim/congLeft.png,left,0,j,001,2019-12-18_12h23.37.859,ANT,3.1.3,60,,,3,0,3,0,1,2,2,0,96,1,1,95
1,left,1,0.529000044,,,,,,,stim/centre.png,stim/incongLeft.png,left,0,j,001,2019-12-18_12h23.37.859,ANT,3.1.3,60,,,3,0,3,0,1,2,2,0,96,18,1,95
0.75,left,1,0.446000099,,,,,,,stim/upper.png,stim/congLeft.png,left,0,j,001,2019-12-18_12h23.37.859,ANT,3.1.3,60,,,3,0,3,0,1,2,2,0,96,0,1,95
1.2,right,1,0.712999821,,,,,,,stim/centre.png,stim/incongLeft.png,right,180,j,001,2019-12-18_12h23.37.859,ANT,3.1.3,60,,,3,0,3,0,1,2,2,0,96,22,1,95
1.25,left,1,0.562999964,,,,,,,stim/upper.png,stim/incongLeft.png,left,0,j,001,2019-12-18_12h23.37.859,ANT,3.1.3,60,,,3,0,3,0,1,2,2,0,96,16,1,95
1.05,right,1,0.75999999,,,,,,,stim/both.png,stim/neutralLeft.png,right,180,j,001,2019-12-18_12h23.37.859,ANT,3.1.3,60,,,3,0,3,0,1,2,2,0,96,37,1,95
0.85,right,1,0.646000147,,,,,,,stim/blank.png,stim/neutralLeft.png,right,180,j,001,2019-12-18_12h23.37.859,ANT,3.1.3,60,,,3,0,3,0,1,2,2,0,96,39,1,95
0.85,right,1,0.645999908,,,,,,,stim/both.png,stim/congLeft.png,right,180,j,001,2019-12-18_12h23.37.859,ANT,3.1.3,60,,,3,0,3,0,1,2,2,0,96,5,1,95
1.55,right,1,0.528999805,,,,,,,stim/centre.png,stim/neutralLeft.png,right,180,j,001,2019-12-18_12h23.37.859,ANT,3.1.3,60,,,3,0,3,0,1,2,2,0,96,38,1,95
1.55,right,1,0.679999828,,,,,,,stim/blank.png,stim/incongRight.png,right,0,j,001,2019-12-18_12h23.37.859,ANT,3.1.3,60,,,3,0,3,0,1,2,2,0,96,27,1,95
1.45,right,1,0.56099987,,,,,,,stim/upper.png,stim/incongRight.png,right,0,j,001,2019-12-18_12h23.37.859,ANT,3.1.3,60,,,3,0,3,0,1,2,2,0,96,24,1,95
1,left,1,0.595000029,,,,,,,stim/both.png,stim/neutralRight.png,left,180,j,001,2019-12-18_12h23.37.859,ANT,3.1.3,60,,,3,0,3,0,1,2,2,0,96,45,1,95
1.5,right,1,0.611999989,,,,,,,stim/both.png,stim/congRight.png,right,0,j,001,2019-12-18_12h23.37.859,ANT,3.1.3,60,,,3,0,3,0,1,2,2,0,96,9,1,95
1.15,right,1,0.611999989,,,,,,,stim/both.png,stim/neutralRight.png,right,0,j,001,2019-12-18_12h23.37.859,ANT,3.1.3,60,,,3,0,3,0,1,2,2,0,96,41,1,95
0.6,right,1,0.812000036,,,,,,,stim/centre.png,stim/incongLeft.png,right,180,j,001,2019-12-18_12h23.37.859,ANT,3.1.3,60,,,3,0,3,0,1,2,2,0,96,22,1,95
0.75,right,1,0.762000084,,,,,,,stim/lower.png,stim/incongLeft.png,right,180,j,001,2019-12-18_12h23.37.859,ANT,3.1.3,60,,,3,0,3,0,1,2,2,0,96,20,1,95
0.4,left,1,0.745999813,,,,,,,stim/centre.png,stim/incongLeft.png,left,0,j,001,2019-12-18_12h23.37.859,ANT,3.1.3,60,,,3,0,3,0,1,2,2,0,96,18,1,95
1.35,right,1,0.828999996,,,,,,,stim/lower.png,stim/congLeft.png,right,180,j,001,2019-12-18_12h23.37.859,ANT,3.1.3,60,,,3,0,3,0,1,2,2,0,96,4,1,95
1.15,left,1,0.661999941,,,,,,,stim/centre.png,stim/incongRight.png,left,180,j,001,2019-12-18_12h23.37.859,ANT,3.1.3,60,,,3,0,3,0,1,2,2,0,96,30,1,95
1,right,1,0.511999846,,,,,,,stim/blank.png,stim/congRight.png,right,0,j,001,2019-12-18_12h23.37.859,ANT,3.1.3,60,,,3,0,3,0,1,2,2,0,96,11,1,95
1.3,left,1,0.661999941,,,,,,,stim/lower.png,stim/incongRight.png,left,180,j,001,2019-12-18_12h23.37.859,ANT,3.1.3,60,,,3,0,3,0,1,2,2,0,96,28,1,95
1.25,left,0,0.477999926,,,,,,,stim/blank.png,stim/incongLeft.png,right,180,j,001,2019-12-18_12h23.37.859,ANT,3.1.3,60,,,3,0,3,0,1,2,2,0,96,23,1,95
0.55,left,1,0.644999981,,,,,,,stim/lower.png,stim/congRight.png,left,180,j,001,2019-12-18_12h23.37.859,ANT,3.1.3,60,,,3,0,3,0,1,2,2,0,96,12,1,95
1.05,left,1,0.763000011,,,,,,,stim/both.png,stim/incongRight.png,left,180,j,001,2019-12-18_12h23.37.859,ANT,3.1.3,60,,,3,0,3,0,1,2,2,0,96,29,1,95
0.75,left,1,0.496000051,,,,,,,stim/centre.png,stim/congRight.png,left,180,j,001,2019-12-18_12h23.37.859,ANT,3.1.3,60,,,3,0,3,0,1,2,2,0,96,14,1,95
1.15,left,1,0.528000116,,,,,,,stim/centre.png,stim/neutralRight.png,left,180,j,001,2019-12-18_12h23.37.859,ANT,3.1.3,60,,,3,0,3,0,1,2,2,0,96,46,1,95
1.3,right,1,0.545000076,,,,,,,stim/centre.png,stim/congLeft.png,right,180,j,001,2019-12-18_12h23.37.859,ANT,3.1.3,60,,,3,0,3,0,1,2,2,0,96,6,1,95
1.05,left,1,0.529000044,,,,,,,stim/upper.png,stim/neutralLeft.png,left,0,j,001,2019-12-18_12h23.37.859,ANT,3.1.3,60,,,3,0,3,0,1,2,2,0,96,32,1,95
0.8,left,1,0.745000124,,,,,,,stim/blank.png,stim/incongRight.png,left,180,j,001,2019-12-18_12h23.37.859,ANT,3.1.3,60,,,3,0,3,0,1,2,2,0,96,31,1,95
1.5,left,1,0.480000019,,,,,,,stim/upper.png,stim/congLeft.png,left,0,j,001,2019-12-18_12h23.37.859,ANT,3.1.3,60,,,3,0,3,0,1,2,2,0,96,0,1,95
0.55,left,1,0.694999933,,,,,,,stim/both.png,stim/congRight.png,left,180,j,001,2019-12-18_12h23.37.859,ANT,3.1.3,60,,,3,0,3,0,1,2,2,0,96,13,1,95
0.65,right,1,0.729000092,,,,,,,stim/both.png,stim/incongRight.png,right,0,j,001,2019-12-18_12h23.37.859,ANT,3.1.3,60,,,3,0,3,0,1,2,2,0,96,25,1,95
0.8,left,1,0.812000036,,,,,,,stim/both.png,stim/incongLeft.png,left,0,j,001,2019-12-18_12h23.37.859,ANT,3.1.3,60,,,3,0,3,0,1,2,2,0,96,17,1,95
0.8,left,1,0.578999996,,,,,,,stim/centre.png,stim/neutralLeft.png,left,0,j,001,2019-12-18_12h23.37.859,ANT,3.1.3,60,,,3,0,3,0,1,2,2,0,96,34,1,95
1.35,left,1,0.513000011,,,,,,,stim/centre.png,stim/congLeft.png,left,0,j,001,2019-12-18_12h23.37.859,ANT,3.1.3,60,,,3,0,3,0,1,2,2,0,96,2,1,95
1,right,1,0.578999996,,,,,,,stim/centre.png,stim/congRight.png,right,0,j,001,2019-12-18_12h23.37.859,ANT,3.1.3,60,,,3,0,3,0,1,2,2,0,96,10,1,95
1.5,right,1,0.813000202,,,,,,,stim/both.png,stim/incongLeft.png,right,180,j,001,2019-12-18_12h23.37.859,ANT,3.1.3,60,,,3,0,3,0,1,2,2,0,96,21,1,95
1.35,right,1,0.61500001,,,,,,,stim/centre.png,stim/neutralRight.png,right,0,j,001,2019-12-18_12h23.37.859,ANT,3.1.3,60,,,3,0,3,0,1,2,2,0,96,42,1,95
0.9,left,1,0.511999846,,,,,,,stim/both.png,stim/neutralLeft.png,left,0,j,001,2019-12-18_12h23.37.859,ANT,3.1.3,60,,,3,0,3,0,1,2,2,0,96,33,1,95
0.4,right,1,0.629000187,,,,,,,stim/lower.png,stim/neutralLeft.png,right,180,j,001,2019-12-18_12h23.37.859,ANT,3.1.3,60,,,3,0,3,0,1,2,2,0,96,36,1,95
0.5,left,1,0.661999941,,,,,,,stim/blank.png,stim/incongLeft.png,left,0,j,001,2019-12-18_12h23.37.859,ANT,3.1.3,60,,,3,0,3,0,1,2,2,0,96,19,1,95
0.95,left,1,0.446000099,,,,,,,stim/lower.png,stim/neutralRight.png,left,180,j,001,2019-12-18_12h23.37.859,ANT,3.1.3,60,,,3,0,3,0,1,2,2,0,96,44,1,95
1.45,left,1,0.527999878,,,,,,,stim/blank.png,stim/neutralLeft.png,left,0,j,001,2019-12-18_12h23.37.859,ANT,3.1.3,60,,,3,0,3,0,1,2,2,0,96,35,1,95
0.45,left,1,0.529000044,,,,,,,stim/blank.png,stim/neutralRight.png,left,180,j,001,2019-12-18_12h23.37.859,ANT,3.1.3,60,,,3,0,3,0,1,2,2,0,96,47,1,95
0.65,left,1,0.59499979,,,,,,,stim/blank.png,stim/congRight.png,left,180,j,001,2019-12-18_12h23.37.859,ANT,3.1.3,60,,,3,0,3,0,1,2,2,0,96,15,1,95
1.3,left,1,0.495000124,,,,,,,stim/both.png,stim/congLeft.png,left,0,j,001,2019-12-18_12h23.37.859,ANT,3.1.3,60,,,3,0,3,0,1,2,2,0,96,1,1,95
1.55,right,1,0.561000109,,,,,,,stim/upper.png,stim/neutralRight.png,right,0,j,001,2019-12-18_12h23.37.859,ANT,3.1.3,60,,,3,0,3,0,1,2,2,0,96,40,1,95
0.75,right,1,0.662000179,,,,,,,stim/centre.png,stim/incongRight.png,right,0,j,001,2019-12-18_12h23.37.859,ANT,3.1.3,60,,,3,0,3,0,1,2,2,0,96,26,1,95
1.35,left,1,0.596000195,,,,,,,stim/blank.png,stim/congLeft.png,left,0,j,001,2019-12-18_12h23.37.859,ANT,3.1.3,60,,,3,0,3,0,1,2,2,0,96,3,1,95
1.15,right,1,0.544999838,,,,,,,stim/blank.png,stim/neutralRight.png,right,0,j,001,2019-12-18_12h23.37.859,ANT,3.1.3,60,,,3,0,3,0,1,2,2,0,96,43,1,95
1.3,right,1,0.429999828,,,,,,,stim/upper.png,stim/congRight.png,right,0,j,001,2019-12-18_12h23.37.859,ANT,3.1.3,60,,,3,0,3,0,1,2,2,0,96,8,1,95
0.65,right,1,0.661999941,,,,,,,stim/blank.png,stim/congLeft.png,right,180,j,001,2019-12-18_12h23.37.859,ANT,3.1.3,60,,,3,0,3,0,1,2,2,0,96,7,1,95
,,,,,,,,,,,,,,j,001,2019-12-18_12h23.37.859,ANT,3.1.3,60,,,3,0,3,0,1,2,,,,,,
1.4,right,1,0.498000145,,,,,,,stim/centre.png,stim/neutralRight.png,right,0,j,001,2019-12-18_12h23.37.859,ANT,3.1.3,60,,,3,0,3,0,1,2,2,0,96,42,1,95
0.5,right,1,0.529000044,,,,,,,stim/blank.png,stim/congLeft.png,right,180,j,001,2019-12-18_12h23.37.859,ANT,3.1.3,60,,,3,0,3,0,1,2,2,0,96,7,1,95
1.4,left,1,0.711999893,,,,,,,stim/blank.png,stim/incongRight.png,left,180,j,001,2019-12-18_12h23.37.859,ANT,3.1.3,60,,,3,0,3,0,1,2,2,0,96,31,1,95
0.75,right,1,0.663000107,,,,,,,stim/blank.png,stim/neutralRight.png,right,0,j,001,2019-12-18_12h23.37.859,ANT,3.1.3,60,,,3,0,3,0,1,2,2,0,96,43,1,95
1.5,left,1,0.730999947,,,,,,,stim/both.png,stim/congRight.png,left,180,j,001,2019-12-18_12h23.37.859,ANT,3.1.3,60,,,3,0,3,0,1,2,2,0,96,13,1,95
1.05,right,1,0.644999981,,,,,,,stim/both.png,stim/congRight.png,right,0,j,001,2019-12-18_12h23.37.859,ANT,3.1.3,60,,,3,0,3,0,1,2,2,0,96,9,1,95
0.8,left,1,0.690999985,,,,,,,stim/both.png,stim/incongRight.png,left,180,j,001,2019-12-18_12h23.37.859,ANT,3.1.3,60,,,3,0,3,0,1,2,2,0,96,29,1,95
0.95,right,1,0.510999918,,,,,,,stim/upper.png,stim/neutralRight.png,right,0,j,001,2019-12-18_12h23.37.859,ANT,3.1.3,60,,,3,0,3,0,1,2,2,0,96,40,1,95
0.75,right,1,0.628999949,,,,,,,stim/centre.png,stim/congLeft.png,right,180,j,001,2019-12-18_12h23.37.859,ANT,3.1.3,60,,,3,0,3,0,1,2,2,0,96,6,1,95
1.5,right,1,0.578999996,,,,,,,stim/blank.png,stim/incongRight.png,right,0,j,001,2019-12-18_12h23.37.859,ANT,3.1.3,60,,,3,0,3,0,1,2,2,0,96,27,1,95
0.85,left,1,0.698000193,,,,,,,stim/blank.png,stim/congRight.png,left,180,j,001,2019-12-18_12h23.37.859,ANT,3.1.3,60,,,3,0,3,0,1,2,2,0,96,15,1,95
0.4,left,1,0.494999886,,,,,,,stim/centre.png,stim/congLeft.png,left,0,j,001,2019-12-18_12h23.37.859,ANT,3.1.3,60,,,3,0,3,0,1,2,2,0,96,2,1,95
0.5,left,1,0.396000147,,,,,,,stim/upper.png,stim/neutralLeft.png,left,0,j,001,2019-12-18_12h23.37.859,ANT,3.1.3,60,,,3,0,3,0,1,2,2,0,96,32,1,95
0.75,left,0,0.463000059,,,,,,,stim/both.png,stim/incongLeft.png,right,180,j,001,2019-12-18_12h23.37.859,ANT,3.1.3,60,,,3,0,3,0,1,2,2,0,96,21,1,95
1.25,left,1,1.045000076,,,,,,,stim/blank.png,stim/neutralLeft.png,left,0,j,001,2019-12-18_12h23.37.859,ANT,3.1.3,60,,,3,0,3,0,1,2,2,0,96,35,1,95
1.55,right,1,0.611000061,,,,,,,stim/upper.png,stim/incongRight.png,right,0,j,001,2019-12-18_12h23.37.859,ANT,3.1.3,60,,,3,0,3,0,1,2,2,0,96,24,1,95
1.35,left,1,0.678999901,,,,,,,stim/blank.png,stim/congLeft.png,left,0,j,001,2019-12-18_12h23.37.859,ANT,3.1.3,60,,,3,0,3,0,1,2,2,0,96,3,1,95
1.1,left,1,0.913999796,,,,,,,stim/lower.png,stim/incongRight.png,left,180,j,001,2019-12-18_12h23.37.859,ANT,3.1.3,60,,,3,0,3,0,1,2,2,0,96,28,1,95
1.5,right,1,0.561999798,,,,,,,stim/blank.png,stim/congRight.png,right,0,j,001,2019-12-18_12h23.37.859,ANT,3.1.3,60,,,3,0,3,0,1,2,2,0,96,11,1,95
1,left,1,0.795000076,,,,,,,stim/centre.png,stim/incongRight.png,left,180,j,001,2019-12-18_12h23.37.859,ANT,3.1.3,60,,,3,0,3,0,1,2,2,0,96,30,1,95
1.3,left,1,0.662000179,,,,,,,stim/both.png,stim/neutralRight.png,left,180,j,001,2019-12-18_12h23.37.859,ANT,3.1.3,60,,,3,0,3,0,1,2,2,0,96,45,1,95
1.3,right,1,0.644999981,,,,,,,stim/lower.png,stim/congLeft.png,right,180,j,001,2019-12-18_12h23.37.859,ANT,3.1.3,60,,,3,0,3,0,1,2,2,0,96,4,1,95
0.6,left,1,0.595000029,,,,,,,stim/centre.png,stim/neutralRight.png,left,180,j,001,2019-12-18_12h23.37.859,ANT,3.1.3,60,,,3,0,3,0,1,2,2,0,96,46,1,95
1.55,left,1,0.463000059,,,,,,,stim/both.png,stim/congLeft.png,left,0,j,001,2019-12-18_12h23.37.859,ANT,3.1.3,60,,,3,0,3,0,1,2,2,0,96,1,1,95
0.45,left,1,0.646000147,,,,,,,stim/centre.png,stim/incongLeft.png,left,0,j,001,2019-12-18_12h23.37.859,ANT,3.1.3,60,,,3,0,3,0,1,2,2,0,96,18,1,95
1.45,left,1,0.578999996,,,,,,,stim/blank.png,stim/neutralRight.png,left,180,j,001,2019-12-18_12h23.37.859,ANT,3.1.3,60,,,3,0,3,0,1,2,2,0,96,47,1,95
0.8,right,1,0.580000162,,,,,,,stim/lower.png,stim/neutralLeft.png,right,180,j,001,2019-12-18_12h23.37.859,ANT,3.1.3,60,,,3,0,3,0,1,2,2,0,96,36,1,95
1,right,1,0.544999838,,,,,,,stim/both.png,stim/neutralLeft.png,right,180,j,001,2019-12-18_12h23.37.859,ANT,3.1.3,60,,,3,0,3,0,1,2,2,0,96,37,1,95
1.25,right,1,0.461999893,,,,,,,stim/both.png,stim/neutralRight.png,right,0,j,001,2019-12-18_12h23.37.859,ANT,3.1.3,60,,,3,0,3,0,1,2,2,0,96,41,1,95
0.6,right,1,0.479000092,,,,,,,stim/centre.png,stim/neutralLeft.png,right,180,j,001,2019-12-18_12h23.37.859,ANT,3.1.3,60,,,3,0,3,0,1,2,2,0,96,38,1,95
1.45,right,1,0.628999949,,,,,,,stim/both.png,stim/incongRight.png,right,0,j,001,2019-12-18_12h23.37.859,ANT,3.1.3,60,,,3,0,3,0,1,2,2,0,96,25,1,95
0.4,right,1,0.444999933,,,,,,,stim/centre.png,stim/incongRight.png,right,0,j,001,2019-12-18_12h23.37.859,ANT,3.1.3,60,,,3,0,3,0,1,2,2,0,96,26,1,95
1.25,left,1,0.531000137,,,,,,,stim/lower.png,stim/congRight.png,left,180,j,001,2019-12-18_12h23.37.859,ANT,3.1.3,60,,,3,0,3,0,1,2,2,0,96,12,1,95
1.1,left,1,0.479000092,,,,,,,stim/both.png,stim/neutralLeft.png,left,0,j,001,2019-12-18_12h23.37.859,ANT,3.1.3,60,,,3,0,3,0,1,2,2,0,96,33,1,95
0.55,right,1,0.795000076,,,,,,,stim/centre.png,stim/incongLeft.png,right,180,j,001,2019-12-18_12h23.37.859,ANT,3.1.3,60,,,3,0,3,0,1,2,2,0,96,22,1,95
0.95,right,1,0.562000036,,,,,,,stim/blank.png,stim/neutralLeft.png,right,180,j,001,2019-12-18_12h23.37.859,ANT,3.1.3,60,,,3,0,3,0,1,2,2,0,96,39,1,95
0.85,left,1,0.628999949,,,,,,,stim/centre.png,stim/congRight.png,left,180,j,001,2019-12-18_12h23.37.859,ANT,3.1.3,60,,,3,0,3,0,1,2,2,0,96,14,1,95
0.55,right,1,0.746000051,,,,,,,stim/upper.png,stim/congRight.png,right,0,j,001,2019-12-18_12h23.37.859,ANT,3.1.3,60,,,3,0,3,0,1,2,2,0,96,8,1,95
1.55,right,1,0.478999853,,,,,,,stim/centre.png,stim/congRight.png,right,0,j,001,2019-12-18_12h23.37.859,ANT,3.1.3,60,,,3,0,3,0,1,2,2,0,96,10,1,95
0.7,left,1,0.628000021,,,,,,,stim/centre.png,stim/neutralLeft.png,left,0,j,001,2019-12-18_12h23.37.859,ANT,3.1.3,60,,,3,0,3,0,1,2,2,0,96,34,1,95
0.6,right,1,0.694999933,,,,,,,stim/lower.png,stim/incongLeft.png,right,180,j,001,2019-12-18_12h23.37.859,ANT,3.1.3,60,,,3,0,3,0,1,2,2,0,96,20,1,95
1.55,left,1,0.496999979,,,,,,,stim/upper.png,stim/congLeft.png,left,0,j,001,2019-12-18_12h23.37.859,ANT,3.1.3,60,,,3,0,3,0,1,2,2,0,96,0,1,95
0.45,left,1,0.794000149,,,,,,,stim/blank.png,stim/incongLeft.png,left,0,j,001,2019-12-18_12h23.37.859,ANT,3.1.3,60,,,3,0,3,0,1,2,2,0,96,19,1,95
0.5,left,1,0.530999899,,,,,,,stim/both.png,stim/incongLeft.png,left,0,j,001,2019-12-18_12h23.37.859,ANT,3.1.3,60,,,3,0,3,0,1,2,2,0,96,17,1,95
1.45,right,1,0.796000004,,,,,,,stim/both.png,stim/congLeft.png,right,180,j,001,2019-12-18_12h23.37.859,ANT,3.1.3,60,,,3,0,3,0,1,2,2,0,96,5,1,95
0.75,left,1,0.644999981,,,,,,,stim/lower.png,stim/neutralRight.png,left,180,j,001,2019-12-18_12h23.37.859,ANT,3.1.3,60,,,3,0,3,0,1,2,2,0,96,44,1,95
1.45,left,1,0.677999973,,,,,,,stim/upper.png,stim/incongLeft.png,left,0,j,001,2019-12-18_12h23.37.859,ANT,3.1.3,60,,,3,0,3,0,1,2,2,0,96,16,1,95
1.5,right,1,0.727999926,,,,,,,stim/blank.png,stim/incongLeft.png,right,180,j,001,2019-12-18_12h23.37.859,ANT,3.1.3,60,,,3,0,3,0,1,2,2,0,96,23,1,95
1.2,right,1,0.663000107,,,,,,,stim/centre.png,stim/incongRight.png,right,0,j,001,2019-12-18_12h23.37.859,ANT,3.1.3,60,,,3,0,3,0,1,2,2,0,96,26,1,95
0.9,right,1,0.612000227,,,,,,,stim/lower.png,stim/neutralLeft.png,right,180,j,001,2019-12-18_12h23.37.859,ANT,3.1.3,60,,,3,0,3,0,1,2,2,0,96,36,1,95
0.9,left,1,0.629000187,,,,,,,stim/both.png,stim/neutralLeft.png,left,0,j,001,2019-12-18_12h23.37.859,ANT,3.1.3,60,,,3,0,3,0,1,2,2,0,96,33,1,95
0.65,left,1,0.546000004,,,,,,,stim/upper.png,stim/neutralLeft.png,left,0,j,001,2019-12-18_12h23.37.859,ANT,3.1.3,60,,,3,0,3,0,1,2,2,0,96,32,1,95
0.55,left,1,0.745000124,,,,,,,stim/both.png,stim/incongLeft.png,left,0,j,001,2019-12-18_12h23.37.859,ANT,3.1.3,60,,,3,0,3,0,1,2,2,0,96,17,1,95
0.75,right,1,0.678999901,,,,,,,stim/both.png,stim/congLeft.png,right,180,j,001,2019-12-18_12h23.37.859,ANT,3.1.3,60,,,3,0,3,0,1,2,2,0,96,5,1,95
0.65,right,1,0.446000099,,,,,,,stim/upper.png,stim/incongRight.png,right,0,j,001,2019-12-18_12h23.37.859,ANT,3.1.3,60,,,3,0,3,0,1,2,2,0,96,24,1,95
1.5,right,1,0.430999994,,,,,,,stim/upper.png,stim/congRight.png,right,0,j,001,2019-12-18_12h23.37.859,ANT,3.1.3,60,,,3,0,3,0,1,2,2,0,96,8,1,95
1.55,right,1,0.677999973,,,,,,,stim/blank.png,stim/congRight.png,right,0,j,001,2019-12-18_12h23.37.859,ANT,3.1.3,60,,,3,0,3,0,1,2,2,0,96,11,1,95
0.45,right,1,0.446000099,,,,,,,stim/upper.png,stim/neutralRight.png,right,0,j,001,2019-12-18_12h23.37.859,ANT,3.1.3,60,,,3,0,3,0,1,2,2,0,96,40,1,95
1.5,left,1,0.529000044,,,,,,,stim/lower.png,stim/congRight.png,left,180,j,001,2019-12-18_12h23.37.859,ANT,3.1.3,60,,,3,0,3,0,1,2,2,0,96,12,1,95
0.5,left,1,0.562999964,,,,,,,stim/blank.png,stim/neutralLeft.png,left,0,j,001,2019-12-18_12h23.37.859,ANT,3.1.3,60,,,3,0,3,0,1,2,2,0,96,35,1,95
0.4,right,1,0.812000036,,,,,,,stim/both.png,stim/incongLeft.png,right,180,j,001,2019-12-18_12h23.37.859,ANT,3.1.3,60,,,3,0,3,0,1,2,2,0,96,21,1,95
0.4,left,1,1.012000084,,,,,,,stim/blank.png,stim/incongLeft.png,left,0,j,001,2019-12-18_12h23.37.859,ANT,3.1.3,60,,,3,0,3,0,1,2,2,0,96,19,1,95
0.7,left,1,0.745999813,,,,,,,stim/centre.png,stim/incongLeft.png,left,0,j,001,2019-12-18_12h23.37.859,ANT,3.1.3,60,,,3,0,3,0,1,2,2,0,96,18,1,95
1.55,left,1,0.529000044,,,,,,,stim/lower.png,stim/neutralRight.png,left,180,j,001,2019-12-18_12h23.37.859,ANT,3.1.3,60,,,3,0,3,0,1,2,2,0,96,44,1,95
0.75,left,1,0.661999941,,,,,,,stim/lower.png,stim/incongRight.png,left,180,j,001,2019-12-18_12h23.37.859,ANT,3.1.3,60,,,3,0,3,0,1,2,2,0,96,28,1,95
1.05,right,1,0.512000084,,,,,,,stim/both.png,stim/congRight.png,right,0,j,001,2019-12-18_12h23.37.859,ANT,3.1.3,60,,,3,0,3,0,1,2,2,0,96,9,1,95
0.9,left,1,0.629999876,,,,,,,stim/centre.png,stim/neutralRight.png,left,180,j,001,2019-12-18_12h23.37.859,ANT,3.1.3,60,,,3,0,3,0,1,2,2,0,96,46,1,95
0.8,right,1,0.679000139,,,,,,,stim/lower.png,stim/congLeft.png,right,180,j,001,2019-12-18_12h23.37.859,ANT,3.1.3,60,,,3,0,3,0,1,2,2,0,96,4,1,95
1.1,left,1,0.544999838,,,,,,,stim/blank.png,stim/congLeft.png,left,0,j,001,2019-12-18_12h23.37.859,ANT,3.1.3,60,,,3,0,3,0,1,2,2,0,96,3,1,95
1.3,right,1,0.512000084,,,,,,,stim/lower.png,stim/incongLeft.png,right,180,j,001,2019-12-18_12h23.37.859,ANT,3.1.3,60,,,3,0,3,0,1,2,2,0,96,20,1,95
0.6,right,1,0.578999996,,,,,,,stim/blank.png,stim/incongRight.png,right,0,j,001,2019-12-18_12h23.37.859,ANT,3.1.3,60,,,3,0,3,0,1,2,2,0,96,27,1,95
1.55,left,1,0.911999941,,,,,,,stim/both.png,stim/incongRight.png,left,180,j,001,2019-12-18_12h23.37.859,ANT,3.1.3,60,,,3,0,3,0,1,2,2,0,96,29,1,95
1.4,left,1,0.697000027,,,,,,,stim/upper.png,stim/incongLeft.png,left,0,j,001,2019-12-18_12h23.37.859,ANT,3.1.3,60,,,3,0,3,0,1,2,2,0,96,16,1,95
0.65,right,1,0.628999949,,,,,,,stim/blank.png,stim/neutralRight.png,right,0,j,001,2019-12-18_12h23.37.859,ANT,3.1.3,60,,,3,0,3,0,1,2,2,0,96,43,1,95
1,right,1,0.661999941,,,,,,,stim/centre.png,stim/congLeft.png,right,180,j,001,2019-12-18_12h23.37.859,ANT,3.1.3,60,,,3,0,3,0,1,2,2,0,96,6,1,95
1.3,right,1,0.611999989,,,,,,,stim/both.png,stim/incongRight.png,right,0,j,001,2019-12-18_12h23.37.859,ANT,3.1.3,60,,,3,0,3,0,1,2,2,0,96,25,1,95
0.9,right,1,0.477999926,,,,,,,stim/both.png,stim/neutralRight.png,right,0,j,001,2019-12-18_12h23.37.859,ANT,3.1.3,60,,,3,0,3,0,1,2,2,0,96,41,1,95
1.1,right,1,0.595000029,,,,,,,stim/centre.png,stim/neutralLeft.png,right,180,j,001,2019-12-18_12h23.37.859,ANT,3.1.3,60,,,3,0,3,0,1,2,2,0,96,38,1,95
1.55,right,1,0.578000069,,,,,,,stim/centre.png,stim/neutralRight.png,right,0,j,001,2019-12-18_12h23.37.859,ANT,3.1.3,60,,,3,0,3,0,1,2,2,0,96,42,1,95
1.3,right,1,0.828999996,,,,,,,stim/blank.png,stim/incongLeft.png,right,180,j,001,2019-12-18_12h23.37.859,ANT,3.1.3,60,,,3,0,3,0,1,2,2,0,96,23,1,95
1.25,left,1,0.462000132,,,,,,,stim/upper.png,stim/congLeft.png,left,0,j,001,2019-12-18_12h23.37.859,ANT,3.1.3,60,,,3,0,3,0,1,2,2,0,96,0,1,95
1.05,left,1,0.613999844,,,,,,,stim/centre.png,stim/neutralLeft.png,left,0,j,001,2019-12-18_12h23.37.859,ANT,3.1.3,60,,,3,0,3,0,1,2,2,0,96,34,1,95
0.9,left,1,0.760999918,,,,,,,stim/blank.png,stim/incongRight.png,left,180,j,001,2019-12-18_12h23.37.859,ANT,3.1.3,60,,,3,0,3,0,1,2,2,0,96,31,1,95
0.55,left,1,0.895999908,,,,,,,stim/both.png,stim/congLeft.png,left,0,j,001,2019-12-18_12h23.37.859,ANT,3.1.3,60,,,3,0,3,0,1,2,2,0,96,1,1,95
1,right,1,0.512000084,,,,,,,stim/blank.png,stim/congLeft.png,right,180,j,001,2019-12-18_12h23.37.859,ANT,3.1.3,60,,,3,0,3,0,1,2,2,0,96,7,1,95
1.05,right,1,0.678999901,,,,,,,stim/centre.png,stim/incongLeft.png,right,180,j,001,2019-12-18_12h23.37.859,ANT,3.1.3,60,,,3,0,3,0,1,2,2,0,96,22,1,95
0.4,left,1,0.647000074,,,,,,,stim/centre.png,stim/congRight.png,left,180,j,001,2019-12-18_12h23.37.859,ANT,3.1.3,60,,,3,0,3,0,1,2,2,0,96,14,1,95
0.65,right,1,0.595999956,,,,,,,stim/blank.png,stim/neutralLeft.png,right,180,j,001,2019-12-18_12h23.37.859,ANT,3.1.3,60,,,3,0,3,0,1,2,2,0,96,39,1,95
0.6,left,1,0.596000195,,,,,,,stim/blank.png,stim/neutralRight.png,left,180,j,001,2019-12-18_12h23.37.859,ANT,3.1.3,60,,,3,0,3,0,1,2,2,0,96,47,1,95
0.55,left,1,0.462000132,,,,,,,stim/both.png,stim/congRight.png,left,180,j,001,2019-12-18_12h23.37.859,ANT,3.1.3,60,,,3,0,3,0,1,2,2,0,96,13,1,95
0.55,left,1,0.661000013,,,,,,,stim/centre.png,stim/congLeft.png,left,0,j,001,2019-12-18_12h23.37.859,ANT,3.1.3,60,,,3,0,3,0,1,2,2,0,96,2,1,95
0.6,left,1,0.529000044,,,,,,,stim/blank.png,stim/congRight.png,left,180,j,001,2019-12-18_12h23.37.859,ANT,3.1.3,60,,,3,0,3,0,1,2,2,0,96,15,1,95
1.3,right,1,0.56099987,,,,,,,stim/both.png,stim/neutralLeft.png,right,180,j,001,2019-12-18_12h23.37.859,ANT,3.1.3,60,,,3,0,3,0,1,2,2,0,96,37,1,95
0.45,left,1,0.56099987,,,,,,,stim/both.png,stim/neutralRight.png,left,180,j,001,2019-12-18_12h23.37.859,ANT,3.1.3,60,,,3,0,3,0,1,2,2,0,96,45,1,95
0.8,right,1,0.644999981,,,,,,,stim/centre.png,stim/congRight.png,right,0,j,001,2019-12-18_12h23.37.859,ANT,3.1.3,60,,,3,0,3,0,1,2,2,0,96,10,1,95
1.5,left,1,0.677999973,,,,,,,stim/centre.png,stim/incongRight.png,left,180,j,001,2019-12-18_12h23.37.859,ANT,3.1.3,60,,,3,0,3,0,1,2,2,0,96,30,1,95
,,,,,,,,,,,,,,j,001,2019-12-18_12h23.37.859,ANT,3.1.3,60,,,3,0,3,0,1,2,,,,,,
