fixDuration,resp.keys,resp.corr,resp.rt,pracLoop.thisRepN,pracLoop.thisTrialN,pracLoop.thisN,pracLoop.thisIndex,pracLoop.ran,pracLoop.order,cue,tar,corrAns,targOrientation,participant,session,date,expName,psychopyVersion,frameRate,instResp.keys,instResp.rt,blockLoop.thisRepN,blockLoop.thisTrialN,blockLoop.thisN,blockLoop.thisIndex,blockLoop.ran,blockLoop.order,mainLoop.thisRepN,mainLoop.thisTrialN,mainLoop.thisN,mainLoop.thisIndex,mainLoop.ran,mainLoop.order
0.7,right,1,0.511,1,0,24,6,1,23,stim/centre.png,stim/congLeft.png,right,180,JEhu,001,2019-08-28_23h44.23.650,ANT,3.1.3,60,,,,,,,,,,,,,,
0.9,left,0,0.476,1,0,24,22,1,23,stim/centre.png,stim/incongLeft.png,right,180,JEhu,001,2019-08-28_23h44.23.650,ANT,3.1.3,60,,,,,,,,,,,,,,
0.6,right,0,1.561,1,0,24,17,1,23,stim/both.png,stim/incongLeft.png,left,0,JEhu,001,2019-08-28_23h44.23.650,ANT,3.1.3,60,,,,,,,,,,,,,,
0.5,,0,,1,0,24,13,1,23,stim/both.png,stim/congRight.png,left,180,JEhu,001,2019-08-28_23h44.23.650,ANT,3.1.3,60,,,,,,,,,,,,,,
0.45,right,1,0.478,1,0,24,7,1,23,stim/blank.png,stim/congLeft.png,right,180,JEhu,001,2019-08-28_23h44.23.650,ANT,3.1.3,60,,,,,,,,,,,,,,
1.15,left,1,1.178,1,0,24,19,1,23,stim/blank.png,stim/incongLeft.png,left,0,JEhu,001,2019-08-28_23h44.23.650,ANT,3.1.3,60,,,,,,,,,,,,,,
0.7,left,0,0.779,1,0,24,23,1,23,stim/blank.png,stim/incongLeft.png,right,180,JEhu,001,2019-08-28_23h44.23.650,ANT,3.1.3,60,,,,,,,,,,,,,,
1.3,right,1,1.028,1,0,24,21,1,23,stim/both.png,stim/incongLeft.png,right,180,JEhu,001,2019-08-28_23h44.23.650,ANT,3.1.3,60,,,,,,,,,,,,,,
1.5,left,1,0.795,1,0,24,3,1,23,stim/blank.png,stim/congLeft.png,left,0,JEhu,001,2019-08-28_23h44.23.650,ANT,3.1.3,60,,,,,,,,,,,,,,
1,right,0,0.812,1,0,24,16,1,23,stim/upper.png,stim/incongLeft.png,left,0,JEhu,001,2019-08-28_23h44.23.650,ANT,3.1.3,60,,,,,,,,,,,,,,
0.4,,0,,1,0,24,20,1,23,stim/lower.png,stim/incongLeft.png,right,180,JEhu,001,2019-08-28_23h44.23.650,ANT,3.1.3,60,,,,,,,,,,,,,,
1.15,left,1,0.711,1,0,24,12,1,23,stim/lower.png,stim/congRight.png,left,180,JEhu,001,2019-08-28_23h44.23.650,ANT,3.1.3,60,,,,,,,,,,,,,,
0.7,left,1,0.445,1,0,24,15,1,23,stim/blank.png,stim/congRight.png,left,180,JEhu,001,2019-08-28_23h44.23.650,ANT,3.1.3,60,,,,,,,,,,,,,,
1.35,right,1,1.113,1,0,24,4,1,23,stim/lower.png,stim/congLeft.png,right,180,JEhu,001,2019-08-28_23h44.23.650,ANT,3.1.3,60,,,,,,,,,,,,,,
1.5,left,1,1.663,1,0,24,1,1,23,stim/both.png,stim/congLeft.png,left,0,JEhu,001,2019-08-28_23h44.23.650,ANT,3.1.3,60,,,,,,,,,,,,,,
1.05,left,1,1.361,1,0,24,2,1,23,stim/centre.png,stim/congLeft.png,left,0,JEhu,001,2019-08-28_23h44.23.650,ANT,3.1.3,60,,,,,,,,,,,,,,
1.35,left,1,0.911,1,0,24,0,1,23,stim/upper.png,stim/congLeft.png,left,0,JEhu,001,2019-08-28_23h44.23.650,ANT,3.1.3,60,,,,,,,,,,,,,,
1,right,1,0.795,1,0,24,5,1,23,stim/both.png,stim/congLeft.png,right,180,JEhu,001,2019-08-28_23h44.23.650,ANT,3.1.3,60,,,,,,,,,,,,,,
0.6,right,1,0.628,1,0,24,9,1,23,stim/both.png,stim/congRight.png,right,0,JEhu,001,2019-08-28_23h44.23.650,ANT,3.1.3,60,,,,,,,,,,,,,,
1.2,right,1,0.895,1,0,24,10,1,23,stim/centre.png,stim/congRight.png,right,0,JEhu,001,2019-08-28_23h44.23.650,ANT,3.1.3,60,,,,,,,,,,,,,,
1.45,right,1,0.761,1,0,24,11,1,23,stim/blank.png,stim/congRight.png,right,0,JEhu,001,2019-08-28_23h44.23.650,ANT,3.1.3,60,,,,,,,,,,,,,,
0.45,left,1,0.997,1,0,24,18,1,23,stim/centre.png,stim/incongLeft.png,left,0,JEhu,001,2019-08-28_23h44.23.650,ANT,3.1.3,60,,,,,,,,,,,,,,
1.1,right,1,0.827,1,0,24,8,1,23,stim/upper.png,stim/congRight.png,right,0,JEhu,001,2019-08-28_23h44.23.650,ANT,3.1.3,60,,,,,,,,,,,,,,
0.85,left,1,0.529,1,0,24,14,1,23,stim/centre.png,stim/congRight.png,left,180,JEhu,001,2019-08-28_23h44.23.650,ANT,3.1.3,60,,,,,,,,,,,,,,
0.65,right,1,0.512,,,,,,,stim/centre.png,stim/neutralLeft.png,right,180,JEhu,001,2019-08-28_23h44.23.650,ANT,3.1.3,60,space,115.366,3,0,3,0,1,2,2,0,96,38,1,95
1.15,left,1,0.611,,,,,,,stim/centre.png,stim/congRight.png,left,180,JEhu,001,2019-08-28_23h44.23.650,ANT,3.1.3,60,,,3,0,3,0,1,2,2,0,96,14,1,95
0.85,left,1,0.547,,,,,,,stim/both.png,stim/congLeft.png,left,0,JEhu,001,2019-08-28_23h44.23.650,ANT,3.1.3,60,,,3,0,3,0,1,2,2,0,96,1,1,95
0.75,right,1,0.561,,,,,,,stim/blank.png,stim/neutralRight.png,right,0,JEhu,001,2019-08-28_23h44.23.650,ANT,3.1.3,60,,,3,0,3,0,1,2,2,0,96,43,1,95
0.8,right,1,0.779,,,,,,,stim/centre.png,stim/congLeft.png,right,180,JEhu,001,2019-08-28_23h44.23.650,ANT,3.1.3,60,,,3,0,3,0,1,2,2,0,96,6,1,95
0.4,left,1,0.977,,,,,,,stim/both.png,stim/neutralRight.png,left,180,JEhu,001,2019-08-28_23h44.23.650,ANT,3.1.3,60,,,3,0,3,0,1,2,2,0,96,45,1,95
0.8,right,0,0.828,,,,,,,stim/upper.png,stim/incongLeft.png,left,0,JEhu,001,2019-08-28_23h44.23.650,ANT,3.1.3,60,,,3,0,3,0,1,2,2,0,96,16,1,95
0.65,left,0,0.578,,,,,,,stim/both.png,stim/incongLeft.png,right,180,JEhu,001,2019-08-28_23h44.23.650,ANT,3.1.3,60,,,3,0,3,0,1,2,2,0,96,21,1,95
1.45,left,0,0.495,,,,,,,stim/centre.png,stim/incongLeft.png,right,180,JEhu,001,2019-08-28_23h44.23.650,ANT,3.1.3,60,,,3,0,3,0,1,2,2,0,96,22,1,95
0.9,right,0,0.428,,,,,,,stim/centre.png,stim/incongRight.png,left,180,JEhu,001,2019-08-28_23h44.23.650,ANT,3.1.3,60,,,3,0,3,0,1,2,2,0,96,30,1,95
1.55,left,0,0.428,,,,,,,stim/both.png,stim/incongRight.png,right,0,JEhu,001,2019-08-28_23h44.23.650,ANT,3.1.3,60,,,3,0,3,0,1,2,2,0,96,25,1,95
0.45,right,0,0.945,,,,,,,stim/blank.png,stim/incongRight.png,left,180,JEhu,001,2019-08-28_23h44.23.650,ANT,3.1.3,60,,,3,0,3,0,1,2,2,0,96,31,1,95
0.9,left,0,0.396,,,,,,,stim/centre.png,stim/incongRight.png,right,0,JEhu,001,2019-08-28_23h44.23.650,ANT,3.1.3,60,,,3,0,3,0,1,2,2,0,96,26,1,95
1,right,1,0.513,,,,,,,stim/blank.png,stim/neutralLeft.png,right,180,JEhu,001,2019-08-28_23h44.23.650,ANT,3.1.3,60,,,3,0,3,0,1,2,2,0,96,39,1,95
0.5,left,1,0.611,,,,,,,stim/centre.png,stim/congLeft.png,left,0,JEhu,001,2019-08-28_23h44.23.650,ANT,3.1.3,60,,,3,0,3,0,1,2,2,0,96,2,1,95
0.7,right,0,1.379,,,,,,,stim/lower.png,stim/neutralRight.png,left,180,JEhu,001,2019-08-28_23h44.23.650,ANT,3.1.3,60,,,3,0,3,0,1,2,2,0,96,44,1,95
0.4,left,0,0.544,,,,,,,stim/blank.png,stim/incongRight.png,right,0,JEhu,001,2019-08-28_23h44.23.650,ANT,3.1.3,60,,,3,0,3,0,1,2,2,0,96,27,1,95
1.1,right,0,0.312,,,,,,,stim/centre.png,stim/neutralRight.png,left,180,JEhu,001,2019-08-28_23h44.23.650,ANT,3.1.3,60,,,3,0,3,0,1,2,2,0,96,46,1,95
0.75,right,1,0.761,,,,,,,stim/both.png,stim/congLeft.png,right,180,JEhu,001,2019-08-28_23h44.23.650,ANT,3.1.3,60,,,3,0,3,0,1,2,2,0,96,5,1,95
1.1,right,0,0.529,,,,,,,stim/blank.png,stim/neutralRight.png,left,180,JEhu,001,2019-08-28_23h44.23.650,ANT,3.1.3,60,,,3,0,3,0,1,2,2,0,96,47,1,95
1,left,1,0.428,,,,,,,stim/blank.png,stim/congLeft.png,left,0,JEhu,001,2019-08-28_23h44.23.650,ANT,3.1.3,60,,,3,0,3,0,1,2,2,0,96,3,1,95
1.4,left,1,0.528,,,,,,,stim/centre.png,stim/neutralLeft.png,left,0,JEhu,001,2019-08-28_23h44.23.650,ANT,3.1.3,60,,,3,0,3,0,1,2,2,0,96,34,1,95
0.7,left,0,0.645,,,,,,,stim/both.png,stim/neutralRight.png,right,0,JEhu,001,2019-08-28_23h44.23.650,ANT,3.1.3,60,,,3,0,3,0,1,2,2,0,96,41,1,95
0.65,right,1,0.362,,,,,,,stim/both.png,stim/congRight.png,right,0,JEhu,001,2019-08-28_23h44.23.650,ANT,3.1.3,60,,,3,0,3,0,1,2,2,0,96,9,1,95
0.6,left,1,1.245,,,,,,,stim/both.png,stim/congRight.png,left,180,JEhu,001,2019-08-28_23h44.23.650,ANT,3.1.3,60,,,3,0,3,0,1,2,2,0,96,13,1,95
0.95,left,1,0.779,,,,,,,stim/upper.png,stim/neutralLeft.png,left,0,JEhu,001,2019-08-28_23h44.23.650,ANT,3.1.3,60,,,3,0,3,0,1,2,2,0,96,32,1,95
1.2,left,1,0.544,,,,,,,stim/blank.png,stim/neutralLeft.png,left,0,JEhu,001,2019-08-28_23h44.23.650,ANT,3.1.3,60,,,3,0,3,0,1,2,2,0,96,35,1,95
1.3,left,1,0.394,,,,,,,stim/both.png,stim/neutralLeft.png,left,0,JEhu,001,2019-08-28_23h44.23.650,ANT,3.1.3,60,,,3,0,3,0,1,2,2,0,96,33,1,95
1.05,left,0,0.529,,,,,,,stim/blank.png,stim/incongLeft.png,right,180,JEhu,001,2019-08-28_23h44.23.650,ANT,3.1.3,60,,,3,0,3,0,1,2,2,0,96,23,1,95
1.55,,0,,,,,,,,stim/both.png,stim/incongRight.png,left,180,JEhu,001,2019-08-28_23h44.23.650,ANT,3.1.3,60,,,3,0,3,0,1,2,2,0,96,29,1,95
1.25,right,1,1.447,,,,,,,stim/both.png,stim/neutralLeft.png,right,180,JEhu,001,2019-08-28_23h44.23.650,ANT,3.1.3,60,,,3,0,3,0,1,2,2,0,96,37,1,95
0.95,left,1,1.177,,,,,,,stim/upper.png,stim/congLeft.png,left,0,JEhu,001,2019-08-28_23h44.23.650,ANT,3.1.3,60,,,3,0,3,0,1,2,2,0,96,0,1,95
1.5,right,1,1.478,,,,,,,stim/upper.png,stim/congRight.png,right,0,JEhu,001,2019-08-28_23h44.23.650,ANT,3.1.3,60,,,3,0,3,0,1,2,2,0,96,8,1,95
0.45,right,0,0.429,,,,,,,stim/lower.png,stim/incongRight.png,left,180,JEhu,001,2019-08-28_23h44.23.650,ANT,3.1.3,60,,,3,0,3,0,1,2,2,0,96,28,1,95
1.4,right,1,1.061,,,,,,,stim/lower.png,stim/incongLeft.png,right,180,JEhu,001,2019-08-28_23h44.23.650,ANT,3.1.3,60,,,3,0,3,0,1,2,2,0,96,20,1,95
0.5,right,1,0.396,,,,,,,stim/lower.png,stim/neutralLeft.png,right,180,JEhu,001,2019-08-28_23h44.23.650,ANT,3.1.3,60,,,3,0,3,0,1,2,2,0,96,36,1,95
0.55,right,1,1.446,,,,,,,stim/blank.png,stim/congLeft.png,right,180,JEhu,001,2019-08-28_23h44.23.650,ANT,3.1.3,60,,,3,0,3,0,1,2,2,0,96,7,1,95
0.5,right,0,0.474,,,,,,,stim/both.png,stim/incongLeft.png,left,0,JEhu,001,2019-08-28_23h44.23.650,ANT,3.1.3,60,,,3,0,3,0,1,2,2,0,96,17,1,95
1.45,right,1,0.012,,,,,,,stim/centre.png,stim/neutralRight.png,right,0,JEhu,001,2019-08-28_23h44.23.650,ANT,3.1.3,60,,,3,0,3,0,1,2,2,0,96,42,1,95
1.1,right,0,0.578,,,,,,,stim/centre.png,stim/incongLeft.png,left,0,JEhu,001,2019-08-28_23h44.23.650,ANT,3.1.3,60,,,3,0,3,0,1,2,2,0,96,18,1,95
1.5,left,1,0.594,,,,,,,stim/lower.png,stim/congRight.png,left,180,JEhu,001,2019-08-28_23h44.23.650,ANT,3.1.3,60,,,3,0,3,0,1,2,2,0,96,12,1,95
0.8,,0,,,,,,,,stim/lower.png,stim/congLeft.png,right,180,JEhu,001,2019-08-28_23h44.23.650,ANT,3.1.3,60,,,3,0,3,0,1,2,2,0,96,4,1,95
1,right,1,0.827,,,,,,,stim/blank.png,stim/congRight.png,right,0,JEhu,001,2019-08-28_23h44.23.650,ANT,3.1.3,60,,,3,0,3,0,1,2,2,0,96,11,1,95
0.95,,0,,,,,,,,stim/upper.png,stim/neutralRight.png,right,0,JEhu,001,2019-08-28_23h44.23.650,ANT,3.1.3,60,,,3,0,3,0,1,2,2,0,96,40,1,95
0.7,,0,,,,,,,,stim/upper.png,stim/incongRight.png,right,0,JEhu,001,2019-08-28_23h44.23.650,ANT,3.1.3,60,,,3,0,3,0,1,2,2,0,96,24,1,95
1.15,right,0,1.046,,,,,,,stim/blank.png,stim/incongLeft.png,left,0,JEhu,001,2019-08-28_23h44.23.650,ANT,3.1.3,60,,,3,0,3,0,1,2,2,0,96,19,1,95
0.85,,0,,,,,,,,stim/centre.png,stim/congRight.png,right,0,JEhu,001,2019-08-28_23h44.23.650,ANT,3.1.3,60,,,3,0,3,0,1,2,2,0,96,10,1,95
1.05,left,1,0.429,,,,,,,stim/blank.png,stim/congRight.png,left,180,JEhu,001,2019-08-28_23h44.23.650,ANT,3.1.3,60,,,3,0,3,0,1,2,2,0,96,15,1,95
1.1,right,0,0.428,,,,,,,stim/both.png,stim/incongLeft.png,left,0,JEhu,001,2019-08-28_23h44.23.650,ANT,3.1.3,60,,,3,0,3,0,1,2,2,0,96,17,1,95
1.25,right,1,0.645,,,,,,,stim/blank.png,stim/neutralLeft.png,right,180,JEhu,001,2019-08-28_23h44.23.650,ANT,3.1.3,60,,,3,0,3,0,1,2,2,0,96,39,1,95
1.25,left,1,0.512,,,,,,,stim/both.png,stim/congLeft.png,left,0,JEhu,001,2019-08-28_23h44.23.650,ANT,3.1.3,60,,,3,0,3,0,1,2,2,0,96,1,1,95
1.45,right,0,0.462,,,,,,,stim/both.png,stim/incongRight.png,left,180,JEhu,001,2019-08-28_23h44.23.650,ANT,3.1.3,60,,,3,0,3,0,1,2,2,0,96,29,1,95
1.45,,0,,,,,,,,stim/both.png,stim/neutralRight.png,right,0,JEhu,001,2019-08-28_23h44.23.650,ANT,3.1.3,60,,,3,0,3,0,1,2,2,0,96,41,1,95
0.75,,0,,,,,,,,stim/both.png,stim/incongRight.png,right,0,JEhu,001,2019-08-28_23h44.23.650,ANT,3.1.3,60,,,3,0,3,0,1,2,2,0,96,25,1,95
0.4,,0,,,,,,,,stim/lower.png,stim/incongLeft.png,right,180,JEhu,001,2019-08-28_23h44.23.650,ANT,3.1.3,60,,,3,0,3,0,1,2,2,0,96,20,1,95
1.05,,0,,,,,,,,stim/both.png,stim/congLeft.png,right,180,JEhu,001,2019-08-28_23h44.23.650,ANT,3.1.3,60,,,3,0,3,0,1,2,2,0,96,5,1,95
1.35,,0,,,,,,,,stim/blank.png,stim/congRight.png,left,180,JEhu,001,2019-08-28_23h44.23.650,ANT,3.1.3,60,,,3,0,3,0,1,2,2,0,96,15,1,95
1.45,,0,,,,,,,,stim/upper.png,stim/congLeft.png,left,0,JEhu,001,2019-08-28_23h44.23.650,ANT,3.1.3,60,,,3,0,3,0,1,2,2,0,96,0,1,95
0.7,,0,,,,,,,,stim/blank.png,stim/congRight.png,right,0,JEhu,001,2019-08-28_23h44.23.650,ANT,3.1.3,60,,,3,0,3,0,1,2,2,0,96,11,1,95
0.85,right,1,1.074,,,,,,,stim/both.png,stim/congRight.png,right,0,JEhu,001,2019-08-28_23h44.23.650,ANT,3.1.3,60,,,3,0,3,0,1,2,2,0,96,9,1,95
1.5,,0,,,,,,,,stim/blank.png,stim/neutralRight.png,left,180,JEhu,001,2019-08-28_23h44.23.650,ANT,3.1.3,60,,,3,0,3,0,1,2,2,0,96,47,1,95
1.35,,0,,,,,,,,stim/both.png,stim/incongLeft.png,right,180,JEhu,001,2019-08-28_23h44.23.650,ANT,3.1.3,60,,,3,0,3,0,1,2,2,0,96,21,1,95
1.35,,0,,,,,,,,stim/centre.png,stim/neutralLeft.png,left,0,JEhu,001,2019-08-28_23h44.23.650,ANT,3.1.3,60,,,3,0,3,0,1,2,2,0,96,34,1,95
1.45,,0,,,,,,,,stim/upper.png,stim/neutralLeft.png,left,0,JEhu,001,2019-08-28_23h44.23.650,ANT,3.1.3,60,,,3,0,3,0,1,2,2,0,96,32,1,95
1.45,,0,,,,,,,,stim/both.png,stim/neutralRight.png,left,180,JEhu,001,2019-08-28_23h44.23.650,ANT,3.1.3,60,,,3,0,3,0,1,2,2,0,96,45,1,95
1.55,,0,,,,,,,,stim/both.png,stim/congRight.png,left,180,JEhu,001,2019-08-28_23h44.23.650,ANT,3.1.3,60,,,3,0,3,0,1,2,2,0,96,13,1,95
1.45,,0,,,,,,,,stim/centre.png,stim/incongRight.png,left,180,JEhu,001,2019-08-28_23h44.23.650,ANT,3.1.3,60,,,3,0,3,0,1,2,2,0,96,30,1,95
0.6,,0,,,,,,,,stim/upper.png,stim/congRight.png,right,0,JEhu,001,2019-08-28_23h44.23.650,ANT,3.1.3,60,,,3,0,3,0,1,2,2,0,96,8,1,95
1.5,,0,,,,,,,,stim/centre.png,stim/congLeft.png,right,180,JEhu,001,2019-08-28_23h44.23.650,ANT,3.1.3,60,,,3,0,3,0,1,2,2,0,96,6,1,95
1.3,right,1,0.328,,,,,,,stim/centre.png,stim/incongRight.png,right,0,JEhu,001,2019-08-28_23h44.23.650,ANT,3.1.3,60,,,3,0,3,0,1,2,2,0,96,26,1,95
1.55,right,0,0.661,,,,,,,stim/blank.png,stim/incongRight.png,left,180,JEhu,001,2019-08-28_23h44.23.650,ANT,3.1.3,60,,,3,0,3,0,1,2,2,0,96,31,1,95
1.25,left,1,1.327,,,,,,,stim/centre.png,stim/congRight.png,left,180,JEhu,001,2019-08-28_23h44.23.650,ANT,3.1.3,60,,,3,0,3,0,1,2,2,0,96,14,1,95
0.8,left,0,0.944,,,,,,,stim/blank.png,stim/incongRight.png,right,0,JEhu,001,2019-08-28_23h44.23.650,ANT,3.1.3,60,,,3,0,3,0,1,2,2,0,96,27,1,95
0.6,,0,,,,,,,,stim/centre.png,stim/neutralRight.png,left,180,JEhu,001,2019-08-28_23h44.23.650,ANT,3.1.3,60,,,3,0,3,0,1,2,2,0,96,46,1,95
0.8,right,0,0.51,,,,,,,stim/both.png,stim/neutralLeft.png,left,0,JEhu,001,2019-08-28_23h44.23.650,ANT,3.1.3,60,,,3,0,3,0,1,2,2,0,96,33,1,95
1.3,right,1,0.545,,,,,,,stim/blank.png,stim/congLeft.png,right,180,JEhu,001,2019-08-28_23h44.23.650,ANT,3.1.3,60,,,3,0,3,0,1,2,2,0,96,7,1,95
0.85,,0,,,,,,,,stim/blank.png,stim/congLeft.png,left,0,JEhu,001,2019-08-28_23h44.23.650,ANT,3.1.3,60,,,3,0,3,0,1,2,2,0,96,3,1,95
0.65,right,1,0.978,,,,,,,stim/both.png,stim/neutralLeft.png,right,180,JEhu,001,2019-08-28_23h44.23.650,ANT,3.1.3,60,,,3,0,3,0,1,2,2,0,96,37,1,95
1.4,right,0,0.461,,,,,,,stim/upper.png,stim/incongLeft.png,left,0,JEhu,001,2019-08-28_23h44.23.650,ANT,3.1.3,60,,,3,0,3,0,1,2,2,0,96,16,1,95
1.55,right,1,1.324,,,,,,,stim/lower.png,stim/congLeft.png,right,180,JEhu,001,2019-08-28_23h44.23.650,ANT,3.1.3,60,,,3,0,3,0,1,2,2,0,96,4,1,95
0.5,left,1,1.278,,,,,,,stim/centre.png,stim/incongLeft.png,left,0,JEhu,001,2019-08-28_23h44.23.650,ANT,3.1.3,60,,,3,0,3,0,1,2,2,0,96,18,1,95
1.25,right,0,1.427,,,,,,,stim/blank.png,stim/neutralLeft.png,left,0,JEhu,001,2019-08-28_23h44.23.650,ANT,3.1.3,60,,,3,0,3,0,1,2,2,0,96,35,1,95
1.15,left,1,1.01,,,,,,,stim/centre.png,stim/congLeft.png,left,0,JEhu,001,2019-08-28_23h44.23.650,ANT,3.1.3,60,,,3,0,3,0,1,2,2,0,96,2,1,95
1.15,right,0,0.545,,,,,,,stim/blank.png,stim/incongLeft.png,left,0,JEhu,001,2019-08-28_23h44.23.650,ANT,3.1.3,60,,,3,0,3,0,1,2,2,0,96,19,1,95
0.65,right,1,1.344,,,,,,,stim/lower.png,stim/neutralLeft.png,right,180,JEhu,001,2019-08-28_23h44.23.650,ANT,3.1.3,60,,,3,0,3,0,1,2,2,0,96,36,1,95
0.9,right,0,0.694,,,,,,,stim/lower.png,stim/incongRight.png,left,180,JEhu,001,2019-08-28_23h44.23.650,ANT,3.1.3,60,,,3,0,3,0,1,2,2,0,96,28,1,95
1.3,left,0,0.893,,,,,,,stim/blank.png,stim/incongLeft.png,right,180,JEhu,001,2019-08-28_23h44.23.650,ANT,3.1.3,60,,,3,0,3,0,1,2,2,0,96,23,1,95
1.45,right,1,0.994,,,,,,,stim/centre.png,stim/congRight.png,right,0,JEhu,001,2019-08-28_23h44.23.650,ANT,3.1.3,60,,,3,0,3,0,1,2,2,0,96,10,1,95
0.7,,0,,,,,,,,stim/upper.png,stim/neutralRight.png,right,0,JEhu,001,2019-08-28_23h44.23.650,ANT,3.1.3,60,,,3,0,3,0,1,2,2,0,96,40,1,95
1.3,left,1,0.594,,,,,,,stim/lower.png,stim/congRight.png,left,180,JEhu,001,2019-08-28_23h44.23.650,ANT,3.1.3,60,,,3,0,3,0,1,2,2,0,96,12,1,95
1.3,right,1,1.01,,,,,,,stim/centre.png,stim/neutralLeft.png,right,180,JEhu,001,2019-08-28_23h44.23.650,ANT,3.1.3,60,,,3,0,3,0,1,2,2,0,96,38,1,95
1.2,left,1,0.961,,,,,,,stim/lower.png,stim/neutralRight.png,left,180,JEhu,001,2019-08-28_23h44.23.650,ANT,3.1.3,60,,,3,0,3,0,1,2,2,0,96,44,1,95
1,right,1,0.611,,,,,,,stim/centre.png,stim/neutralRight.png,right,0,JEhu,001,2019-08-28_23h44.23.650,ANT,3.1.3,60,,,3,0,3,0,1,2,2,0,96,42,1,95
1.2,right,1,0.911,,,,,,,stim/blank.png,stim/neutralRight.png,right,0,JEhu,001,2019-08-28_23h44.23.650,ANT,3.1.3,60,,,3,0,3,0,1,2,2,0,96,43,1,95
0.7,left,0,1.011,,,,,,,stim/centre.png,stim/incongLeft.png,right,180,JEhu,001,2019-08-28_23h44.23.650,ANT,3.1.3,60,,,3,0,3,0,1,2,2,0,96,22,1,95
1.1,,0,,,,,,,,stim/upper.png,stim/incongRight.png,right,0,JEhu,001,2019-08-28_23h44.23.650,ANT,3.1.3,60,,,3,0,3,0,1,2,2,0,96,24,1,95
,,,,,,,,,,,,,,JEhu,001,2019-08-28_23h44.23.650,ANT,3.1.3,60,,,3,0,3,0,1,2,,,,,,
1.25,left,1,0.828,,,,,,,stim/both.png,stim/neutralRight.png,left,180,JEhu,001,2019-08-28_23h44.23.650,ANT,3.1.3,60,,,3,0,3,0,1,2,2,0,96,45,1,95
0.75,right,1,0.646,,,,,,,stim/centre.png,stim/neutralRight.png,right,0,JEhu,001,2019-08-28_23h44.23.650,ANT,3.1.3,60,,,3,0,3,0,1,2,2,0,96,42,1,95
1.4,right,1,0.563,,,,,,,stim/blank.png,stim/neutralLeft.png,right,180,JEhu,001,2019-08-28_23h44.23.650,ANT,3.1.3,60,,,3,0,3,0,1,2,2,0,96,39,1,95
0.55,right,1,0.577,,,,,,,stim/upper.png,stim/congRight.png,right,0,JEhu,001,2019-08-28_23h44.23.650,ANT,3.1.3,60,,,3,0,3,0,1,2,2,0,96,8,1,95
0.7,,0,,,,,,,,stim/blank.png,stim/incongLeft.png,right,180,JEhu,001,2019-08-28_23h44.23.650,ANT,3.1.3,60,,,3,0,3,0,1,2,2,0,96,23,1,95
1.35,right,0,1.111,,,,,,,stim/lower.png,stim/incongRight.png,left,180,JEhu,001,2019-08-28_23h44.23.650,ANT,3.1.3,60,,,3,0,3,0,1,2,2,0,96,28,1,95
1.45,right,0,0.828,,,,,,,stim/blank.png,stim/incongRight.png,left,180,JEhu,001,2019-08-28_23h44.23.650,ANT,3.1.3,60,,,3,0,3,0,1,2,2,0,96,31,1,95
1.4,,0,,,,,,,,stim/blank.png,stim/incongLeft.png,left,0,JEhu,001,2019-08-28_23h44.23.650,ANT,3.1.3,60,,,3,0,3,0,1,2,2,0,96,19,1,95
1.3,right,1,0.595,,,,,,,stim/both.png,stim/congLeft.png,right,180,JEhu,001,2019-08-28_23h44.23.650,ANT,3.1.3,60,,,3,0,3,0,1,2,2,0,96,5,1,95
1,left,0,1.213,,,,,,,stim/lower.png,stim/incongLeft.png,right,180,JEhu,001,2019-08-28_23h44.23.650,ANT,3.1.3,60,,,3,0,3,0,1,2,2,0,96,20,1,95
1.4,left,1,1.327,,,,,,,stim/both.png,stim/congRight.png,left,180,JEhu,001,2019-08-28_23h44.23.650,ANT,3.1.3,60,,,3,0,3,0,1,2,2,0,96,13,1,95
1.25,,0,,,,,,,,stim/both.png,stim/incongRight.png,right,0,JEhu,001,2019-08-28_23h44.23.650,ANT,3.1.3,60,,,3,0,3,0,1,2,2,0,96,25,1,95
0.65,right,1,1.161,,,,,,,stim/lower.png,stim/neutralLeft.png,right,180,JEhu,001,2019-08-28_23h44.23.650,ANT,3.1.3,60,,,3,0,3,0,1,2,2,0,96,36,1,95
1.3,,0,,,,,,,,stim/both.png,stim/incongLeft.png,right,180,JEhu,001,2019-08-28_23h44.23.650,ANT,3.1.3,60,,,3,0,3,0,1,2,2,0,96,21,1,95
1.15,left,1,1.344,,,,,,,stim/blank.png,stim/neutralLeft.png,left,0,JEhu,001,2019-08-28_23h44.23.650,ANT,3.1.3,60,,,3,0,3,0,1,2,2,0,96,35,1,95
1.3,left,1,0.646,,,,,,,stim/centre.png,stim/congRight.png,left,180,JEhu,001,2019-08-28_23h44.23.650,ANT,3.1.3,60,,,3,0,3,0,1,2,2,0,96,14,1,95
0.9,left,1,1.028,,,,,,,stim/upper.png,stim/congLeft.png,left,0,JEhu,001,2019-08-28_23h44.23.650,ANT,3.1.3,60,,,3,0,3,0,1,2,2,0,96,0,1,95
0.4,left,1,1.245,,,,,,,stim/blank.png,stim/congRight.png,left,180,JEhu,001,2019-08-28_23h44.23.650,ANT,3.1.3,60,,,3,0,3,0,1,2,2,0,96,15,1,95
1.5,right,1,1.029,,,,,,,stim/both.png,stim/congRight.png,right,0,JEhu,001,2019-08-28_23h44.23.650,ANT,3.1.3,60,,,3,0,3,0,1,2,2,0,96,9,1,95
0.7,right,1,0.745,,,,,,,stim/blank.png,stim/congRight.png,right,0,JEhu,001,2019-08-28_23h44.23.650,ANT,3.1.3,60,,,3,0,3,0,1,2,2,0,96,11,1,95
0.8,,0,,,,,,,,stim/both.png,stim/incongLeft.png,left,0,JEhu,001,2019-08-28_23h44.23.650,ANT,3.1.3,60,,,3,0,3,0,1,2,2,0,96,17,1,95
1.05,,0,,,,,,,,stim/centre.png,stim/congLeft.png,right,180,JEhu,001,2019-08-28_23h44.23.650,ANT,3.1.3,60,,,3,0,3,0,1,2,2,0,96,6,1,95
1,,0,,,,,,,,stim/lower.png,stim/neutralRight.png,left,180,JEhu,001,2019-08-28_23h44.23.650,ANT,3.1.3,60,,,3,0,3,0,1,2,2,0,96,44,1,95
1.5,right,1,0.561,,,,,,,stim/blank.png,stim/congLeft.png,right,180,JEhu,001,2019-08-28_23h44.23.650,ANT,3.1.3,60,,,3,0,3,0,1,2,2,0,96,7,1,95
0.75,,0,,,,,,,,stim/lower.png,stim/congLeft.png,right,180,JEhu,001,2019-08-28_23h44.23.650,ANT,3.1.3,60,,,3,0,3,0,1,2,2,0,96,4,1,95
0.4,left,1,0.595,,,,,,,stim/centre.png,stim/neutralRight.png,left,180,JEhu,001,2019-08-28_23h44.23.650,ANT,3.1.3,60,,,3,0,3,0,1,2,2,0,96,46,1,95
1.15,,0,,,,,,,,stim/blank.png,stim/congLeft.png,left,0,JEhu,001,2019-08-28_23h44.23.650,ANT,3.1.3,60,,,3,0,3,0,1,2,2,0,96,3,1,95
0.9,right,0,0.395,,,,,,,stim/both.png,stim/incongRight.png,left,180,JEhu,001,2019-08-28_23h44.23.650,ANT,3.1.3,60,,,3,0,3,0,1,2,2,0,96,29,1,95
0.95,left,0,0.579,,,,,,,stim/upper.png,stim/incongRight.png,right,0,JEhu,001,2019-08-28_23h44.23.650,ANT,3.1.3,60,,,3,0,3,0,1,2,2,0,96,24,1,95
0.4,left,1,0.578,,,,,,,stim/lower.png,stim/congRight.png,left,180,JEhu,001,2019-08-28_23h44.23.650,ANT,3.1.3,60,,,3,0,3,0,1,2,2,0,96,12,1,95
0.95,left,0,0.494,,,,,,,stim/blank.png,stim/incongRight.png,right,0,JEhu,001,2019-08-28_23h44.23.650,ANT,3.1.3,60,,,3,0,3,0,1,2,2,0,96,27,1,95
1.5,left,1,1.194,,,,,,,stim/centre.png,stim/neutralLeft.png,left,0,JEhu,001,2019-08-28_23h44.23.650,ANT,3.1.3,60,,,3,0,3,0,1,2,2,0,96,34,1,95
0.4,left,1,0.496,,,,,,,stim/both.png,stim/congLeft.png,left,0,JEhu,001,2019-08-28_23h44.23.650,ANT,3.1.3,60,,,3,0,3,0,1,2,2,0,96,1,1,95
1.4,right,1,1.061,,,,,,,stim/blank.png,stim/neutralRight.png,right,0,JEhu,001,2019-08-28_23h44.23.650,ANT,3.1.3,60,,,3,0,3,0,1,2,2,0,96,43,1,95
1,right,0,0.812,,,,,,,stim/centre.png,stim/incongLeft.png,left,0,JEhu,001,2019-08-28_23h44.23.650,ANT,3.1.3,60,,,3,0,3,0,1,2,2,0,96,18,1,95
0.65,right,1,0.545,,,,,,,stim/centre.png,stim/neutralLeft.png,right,180,JEhu,001,2019-08-28_23h44.23.650,ANT,3.1.3,60,,,3,0,3,0,1,2,2,0,96,38,1,95
0.75,right,1,0.678,,,,,,,stim/both.png,stim/neutralLeft.png,right,180,JEhu,001,2019-08-28_23h44.23.650,ANT,3.1.3,60,,,3,0,3,0,1,2,2,0,96,37,1,95
0.75,left,1,0.596,,,,,,,stim/blank.png,stim/neutralRight.png,left,180,JEhu,001,2019-08-28_23h44.23.650,ANT,3.1.3,60,,,3,0,3,0,1,2,2,0,96,47,1,95
1.4,left,1,0.578,,,,,,,stim/upper.png,stim/neutralLeft.png,left,0,JEhu,001,2019-08-28_23h44.23.650,ANT,3.1.3,60,,,3,0,3,0,1,2,2,0,96,32,1,95
0.85,right,0,0.429,,,,,,,stim/centre.png,stim/incongRight.png,left,180,JEhu,001,2019-08-28_23h44.23.650,ANT,3.1.3,60,,,3,0,3,0,1,2,2,0,96,30,1,95
1.1,left,1,0.728,,,,,,,stim/centre.png,stim/congLeft.png,left,0,JEhu,001,2019-08-28_23h44.23.650,ANT,3.1.3,60,,,3,0,3,0,1,2,2,0,96,2,1,95
0.65,right,1,0.662,,,,,,,stim/upper.png,stim/neutralRight.png,right,0,JEhu,001,2019-08-28_23h44.23.650,ANT,3.1.3,60,,,3,0,3,0,1,2,2,0,96,40,1,95
0.65,right,1,0.529,,,,,,,stim/centre.png,stim/congRight.png,right,0,JEhu,001,2019-08-28_23h44.23.650,ANT,3.1.3,60,,,3,0,3,0,1,2,2,0,96,10,1,95
1.55,right,0,0.878,,,,,,,stim/upper.png,stim/incongLeft.png,left,0,JEhu,001,2019-08-28_23h44.23.650,ANT,3.1.3,60,,,3,0,3,0,1,2,2,0,96,16,1,95
1.2,left,0,0.678,,,,,,,stim/centre.png,stim/incongLeft.png,right,180,JEhu,001,2019-08-28_23h44.23.650,ANT,3.1.3,60,,,3,0,3,0,1,2,2,0,96,22,1,95
1,left,1,0.629,,,,,,,stim/both.png,stim/neutralLeft.png,left,0,JEhu,001,2019-08-28_23h44.23.650,ANT,3.1.3,60,,,3,0,3,0,1,2,2,0,96,33,1,95
0.95,left,0,0.728,,,,,,,stim/centre.png,stim/incongRight.png,right,0,JEhu,001,2019-08-28_23h44.23.650,ANT,3.1.3,60,,,3,0,3,0,1,2,2,0,96,26,1,95
0.65,right,1,0.628,,,,,,,stim/both.png,stim/neutralRight.png,right,0,JEhu,001,2019-08-28_23h44.23.650,ANT,3.1.3,60,,,3,0,3,0,1,2,2,0,96,41,1,95
1.5,left,1,0.546,,,,,,,stim/both.png,stim/congLeft.png,left,0,JEhu,001,2019-08-28_23h44.23.650,ANT,3.1.3,60,,,3,0,3,0,1,2,2,0,96,1,1,95
1.4,left,1,0.73,,,,,,,stim/both.png,stim/neutralLeft.png,left,0,JEhu,001,2019-08-28_23h44.23.650,ANT,3.1.3,60,,,3,0,3,0,1,2,2,0,96,33,1,95
0.65,left,0,0.812,,,,,,,stim/blank.png,stim/incongLeft.png,right,180,JEhu,001,2019-08-28_23h44.23.650,ANT,3.1.3,60,,,3,0,3,0,1,2,2,0,96,23,1,95
1.05,right,0,0.595,,,,,,,stim/centre.png,stim/incongLeft.png,left,0,JEhu,001,2019-08-28_23h44.23.650,ANT,3.1.3,60,,,3,0,3,0,1,2,2,0,96,18,1,95
1.45,left,1,0.66,,,,,,,stim/centre.png,stim/congRight.png,left,180,JEhu,001,2019-08-28_23h44.23.650,ANT,3.1.3,60,,,3,0,3,0,1,2,2,0,96,14,1,95
1.3,left,1,0.644,,,,,,,stim/blank.png,stim/neutralLeft.png,left,0,JEhu,001,2019-08-28_23h44.23.650,ANT,3.1.3,60,,,3,0,3,0,1,2,2,0,96,35,1,95
0.55,right,0,0.678,,,,,,,stim/both.png,stim/incongLeft.png,left,0,JEhu,001,2019-08-28_23h44.23.650,ANT,3.1.3,60,,,3,0,3,0,1,2,2,0,96,17,1,95
0.75,right,0,0.827,,,,,,,stim/both.png,stim/incongRight.png,left,180,JEhu,001,2019-08-28_23h44.23.650,ANT,3.1.3,60,,,3,0,3,0,1,2,2,0,96,29,1,95
0.4,left,0,0.628,,,,,,,stim/lower.png,stim/incongLeft.png,right,180,JEhu,001,2019-08-28_23h44.23.650,ANT,3.1.3,60,,,3,0,3,0,1,2,2,0,96,20,1,95
1.15,left,1,1.18,,,,,,,stim/blank.png,stim/neutralRight.png,left,180,JEhu,001,2019-08-28_23h44.23.650,ANT,3.1.3,60,,,3,0,3,0,1,2,2,0,96,47,1,95
1.2,right,0,1.211,,,,,,,stim/upper.png,stim/incongLeft.png,left,0,JEhu,001,2019-08-28_23h44.23.650,ANT,3.1.3,60,,,3,0,3,0,1,2,2,0,96,16,1,95
1.2,right,1,0.562,,,,,,,stim/both.png,stim/congLeft.png,right,180,JEhu,001,2019-08-28_23h44.23.650,ANT,3.1.3,60,,,3,0,3,0,1,2,2,0,96,5,1,95
1.5,right,1,0.929,,,,,,,stim/both.png,stim/congRight.png,right,0,JEhu,001,2019-08-28_23h44.23.650,ANT,3.1.3,60,,,3,0,3,0,1,2,2,0,96,9,1,95
0.55,left,1,1.162,,,,,,,stim/blank.png,stim/congLeft.png,left,0,JEhu,001,2019-08-28_23h44.23.650,ANT,3.1.3,60,,,3,0,3,0,1,2,2,0,96,3,1,95
0.6,left,1,0.928,,,,,,,stim/lower.png,stim/neutralRight.png,left,180,JEhu,001,2019-08-28_23h44.23.650,ANT,3.1.3,60,,,3,0,3,0,1,2,2,0,96,44,1,95
0.75,right,1,0.777,,,,,,,stim/both.png,stim/incongLeft.png,right,180,JEhu,001,2019-08-28_23h44.23.650,ANT,3.1.3,60,,,3,0,3,0,1,2,2,0,96,21,1,95
1.35,right,0,0.994,,,,,,,stim/lower.png,stim/incongRight.png,left,180,JEhu,001,2019-08-28_23h44.23.650,ANT,3.1.3,60,,,3,0,3,0,1,2,2,0,96,28,1,95
0.9,left,1,0.714,,,,,,,stim/centre.png,stim/neutralRight.png,left,180,JEhu,001,2019-08-28_23h44.23.650,ANT,3.1.3,60,,,3,0,3,0,1,2,2,0,96,46,1,95
1.35,right,1,0.779,,,,,,,stim/upper.png,stim/neutralRight.png,right,0,JEhu,001,2019-08-28_23h44.23.650,ANT,3.1.3,60,,,3,0,3,0,1,2,2,0,96,40,1,95
0.85,left,1,1.079,,,,,,,stim/upper.png,stim/neutralLeft.png,left,0,JEhu,001,2019-08-28_23h44.23.650,ANT,3.1.3,60,,,3,0,3,0,1,2,2,0,96,32,1,95
0.85,left,1,0.796,,,,,,,stim/centre.png,stim/congLeft.png,left,0,JEhu,001,2019-08-28_23h44.23.650,ANT,3.1.3,60,,,3,0,3,0,1,2,2,0,96,2,1,95
1.05,left,1,0.646,,,,,,,stim/lower.png,stim/congRight.png,left,180,JEhu,001,2019-08-28_23h44.23.650,ANT,3.1.3,60,,,3,0,3,0,1,2,2,0,96,12,1,95
1.5,left,1,0.546,,,,,,,stim/both.png,stim/congRight.png,left,180,JEhu,001,2019-08-28_23h44.23.650,ANT,3.1.3,60,,,3,0,3,0,1,2,2,0,96,13,1,95
0.45,left,1,0.579,,,,,,,stim/centre.png,stim/neutralLeft.png,left,0,JEhu,001,2019-08-28_23h44.23.650,ANT,3.1.3,60,,,3,0,3,0,1,2,2,0,96,34,1,95
0.5,right,0,0.894,,,,,,,stim/blank.png,stim/incongLeft.png,left,0,JEhu,001,2019-08-28_23h44.23.650,ANT,3.1.3,60,,,3,0,3,0,1,2,2,0,96,19,1,95
1.5,left,1,0.512,,,,,,,stim/upper.png,stim/congLeft.png,left,0,JEhu,001,2019-08-28_23h44.23.650,ANT,3.1.3,60,,,3,0,3,0,1,2,2,0,96,0,1,95
0.85,right,1,0.894,,,,,,,stim/blank.png,stim/congLeft.png,right,180,JEhu,001,2019-08-28_23h44.23.650,ANT,3.1.3,60,,,3,0,3,0,1,2,2,0,96,7,1,95
1.15,right,0,0.828,,,,,,,stim/centre.png,stim/incongRight.png,left,180,JEhu,001,2019-08-28_23h44.23.650,ANT,3.1.3,60,,,3,0,3,0,1,2,2,0,96,30,1,95
0.75,,0,,,,,,,,stim/blank.png,stim/neutralLeft.png,right,180,JEhu,001,2019-08-28_23h44.23.650,ANT,3.1.3,60,,,3,0,3,0,1,2,2,0,96,39,1,95
1.05,left,0,0.779,,,,,,,stim/centre.png,stim/incongRight.png,right,0,JEhu,001,2019-08-28_23h44.23.650,ANT,3.1.3,60,,,3,0,3,0,1,2,2,0,96,26,1,95
1.2,left,1,0.946,,,,,,,stim/blank.png,stim/congRight.png,left,180,JEhu,001,2019-08-28_23h44.23.650,ANT,3.1.3,60,,,3,0,3,0,1,2,2,0,96,15,1,95
0.55,left,0,0.678,,,,,,,stim/both.png,stim/incongRight.png,right,0,JEhu,001,2019-08-28_23h44.23.650,ANT,3.1.3,60,,,3,0,3,0,1,2,2,0,96,25,1,95
0.5,right,1,0.729,,,,,,,stim/both.png,stim/neutralLeft.png,right,180,JEhu,001,2019-08-28_23h44.23.650,ANT,3.1.3,60,,,3,0,3,0,1,2,2,0,96,37,1,95
0.75,right,1,0.528,,,,,,,stim/centre.png,stim/congRight.png,right,0,JEhu,001,2019-08-28_23h44.23.650,ANT,3.1.3,60,,,3,0,3,0,1,2,2,0,96,10,1,95
0.6,right,1,1.378,,,,,,,stim/blank.png,stim/neutralRight.png,right,0,JEhu,001,2019-08-28_23h44.23.650,ANT,3.1.3,60,,,3,0,3,0,1,2,2,0,96,43,1,95
1.35,right,1,0.563,,,,,,,stim/centre.png,stim/congLeft.png,right,180,JEhu,001,2019-08-28_23h44.23.650,ANT,3.1.3,60,,,3,0,3,0,1,2,2,0,96,6,1,95
1.45,right,0,0.478,,,,,,,stim/blank.png,stim/incongRight.png,left,180,JEhu,001,2019-08-28_23h44.23.650,ANT,3.1.3,60,,,3,0,3,0,1,2,2,0,96,31,1,95
0.45,right,1,0.779,,,,,,,stim/blank.png,stim/congRight.png,right,0,JEhu,001,2019-08-28_23h44.23.650,ANT,3.1.3,60,,,3,0,3,0,1,2,2,0,96,11,1,95
0.55,left,0,0.478,,,,,,,stim/upper.png,stim/incongRight.png,right,0,JEhu,001,2019-08-28_23h44.23.650,ANT,3.1.3,60,,,3,0,3,0,1,2,2,0,96,24,1,95
0.9,right,1,0.644,,,,,,,stim/both.png,stim/neutralRight.png,right,0,JEhu,001,2019-08-28_23h44.23.650,ANT,3.1.3,60,,,3,0,3,0,1,2,2,0,96,41,1,95
0.7,right,1,0.611,,,,,,,stim/upper.png,stim/congRight.png,right,0,JEhu,001,2019-08-28_23h44.23.650,ANT,3.1.3,60,,,3,0,3,0,1,2,2,0,96,8,1,95
1.4,left,0,0.563,,,,,,,stim/centre.png,stim/incongLeft.png,right,180,JEhu,001,2019-08-28_23h44.23.650,ANT,3.1.3,60,,,3,0,3,0,1,2,2,0,96,22,1,95
1.25,left,1,0.629,,,,,,,stim/both.png,stim/neutralRight.png,left,180,JEhu,001,2019-08-28_23h44.23.650,ANT,3.1.3,60,,,3,0,3,0,1,2,2,0,96,45,1,95
1.25,right,1,0.627,,,,,,,stim/centre.png,stim/neutralRight.png,right,0,JEhu,001,2019-08-28_23h44.23.650,ANT,3.1.3,60,,,3,0,3,0,1,2,2,0,96,42,1,95
1.5,right,1,0.712,,,,,,,stim/lower.png,stim/congLeft.png,right,180,JEhu,001,2019-08-28_23h44.23.650,ANT,3.1.3,60,,,3,0,3,0,1,2,2,0,96,4,1,95
0.95,left,0,1.263,,,,,,,stim/blank.png,stim/incongRight.png,right,0,JEhu,001,2019-08-28_23h44.23.650,ANT,3.1.3,60,,,3,0,3,0,1,2,2,0,96,27,1,95
0.75,right,1,1.228,,,,,,,stim/lower.png,stim/neutralLeft.png,right,180,JEhu,001,2019-08-28_23h44.23.650,ANT,3.1.3,60,,,3,0,3,0,1,2,2,0,96,36,1,95
1.5,right,1,0.645,,,,,,,stim/centre.png,stim/neutralLeft.png,right,180,JEhu,001,2019-08-28_23h44.23.650,ANT,3.1.3,60,,,3,0,3,0,1,2,2,0,96,38,1,95
,,,,,,,,,,,,,,JEhu,001,2019-08-28_23h44.23.650,ANT,3.1.3,60,,,3,0,3,0,1,2,,,,,,
1.5,left,1,0.577,,,,,,,stim/both.png,stim/congLeft.png,left,0,JEhu,001,2019-08-28_23h44.23.650,ANT,3.1.3,60,,,3,0,3,0,1,2,2,0,96,1,1,95
1.4,right,1,0.678,,,,,,,stim/lower.png,stim/neutralLeft.png,right,180,JEhu,001,2019-08-28_23h44.23.650,ANT,3.1.3,60,,,3,0,3,0,1,2,2,0,96,36,1,95
0.8,right,0,1.009,,,,,,,stim/centre.png,stim/incongLeft.png,left,0,JEhu,001,2019-08-28_23h44.23.650,ANT,3.1.3,60,,,3,0,3,0,1,2,2,0,96,18,1,95
0.65,right,0,0.895,,,,,,,stim/blank.png,stim/incongLeft.png,left,0,JEhu,001,2019-08-28_23h44.23.650,ANT,3.1.3,60,,,3,0,3,0,1,2,2,0,96,19,1,95
1.35,left,1,0.911,,,,,,,stim/upper.png,stim/neutralLeft.png,left,0,JEhu,001,2019-08-28_23h44.23.650,ANT,3.1.3,60,,,3,0,3,0,1,2,2,0,96,32,1,95
0.75,left,1,0.679,,,,,,,stim/blank.png,stim/congRight.png,left,180,JEhu,001,2019-08-28_23h44.23.650,ANT,3.1.3,60,,,3,0,3,0,1,2,2,0,96,15,1,95
1,left,0,1.26,,,,,,,stim/lower.png,stim/incongLeft.png,right,180,JEhu,001,2019-08-28_23h44.23.650,ANT,3.1.3,60,,,3,0,3,0,1,2,2,0,96,20,1,95
1.4,left,1,0.743,,,,,,,stim/blank.png,stim/congLeft.png,left,0,JEhu,001,2019-08-28_23h44.23.650,ANT,3.1.3,60,,,3,0,3,0,1,2,2,0,96,3,1,95
1.55,left,0,0.729,,,,,,,stim/upper.png,stim/incongRight.png,right,0,JEhu,001,2019-08-28_23h44.23.650,ANT,3.1.3,60,,,3,0,3,0,1,2,2,0,96,24,1,95
1.3,left,0,0.828,,,,,,,stim/blank.png,stim/incongRight.png,right,0,JEhu,001,2019-08-28_23h44.23.650,ANT,3.1.3,60,,,3,0,3,0,1,2,2,0,96,27,1,95
0.55,right,1,0.778,,,,,,,stim/both.png,stim/congLeft.png,right,180,JEhu,001,2019-08-28_23h44.23.650,ANT,3.1.3,60,,,3,0,3,0,1,2,2,0,96,5,1,95
0.5,right,1,0.743,,,,,,,stim/blank.png,stim/neutralRight.png,right,0,JEhu,001,2019-08-28_23h44.23.650,ANT,3.1.3,60,,,3,0,3,0,1,2,2,0,96,43,1,95
1.35,left,0,0.796,,,,,,,stim/centre.png,stim/incongRight.png,right,0,JEhu,001,2019-08-28_23h44.23.650,ANT,3.1.3,60,,,3,0,3,0,1,2,2,0,96,26,1,95
0.6,right,1,0.694,,,,,,,stim/blank.png,stim/congLeft.png,right,180,JEhu,001,2019-08-28_23h44.23.650,ANT,3.1.3,60,,,3,0,3,0,1,2,2,0,96,7,1,95
0.75,left,1,0.678,,,,,,,stim/centre.png,stim/neutralLeft.png,left,0,JEhu,001,2019-08-28_23h44.23.650,ANT,3.1.3,60,,,3,0,3,0,1,2,2,0,96,34,1,95
1.1,right,0,1.061,,,,,,,stim/centre.png,stim/incongRight.png,left,180,JEhu,001,2019-08-28_23h44.23.650,ANT,3.1.3,60,,,3,0,3,0,1,2,2,0,96,30,1,95
1.1,right,0,1.011,,,,,,,stim/lower.png,stim/incongRight.png,left,180,JEhu,001,2019-08-28_23h44.23.650,ANT,3.1.3,60,,,3,0,3,0,1,2,2,0,96,28,1,95
0.9,left,1,0.511,,,,,,,stim/centre.png,stim/congLeft.png,left,0,JEhu,001,2019-08-28_23h44.23.650,ANT,3.1.3,60,,,3,0,3,0,1,2,2,0,96,2,1,95
1.5,right,0,0.746,,,,,,,stim/blank.png,stim/incongRight.png,left,180,JEhu,001,2019-08-28_23h44.23.650,ANT,3.1.3,60,,,3,0,3,0,1,2,2,0,96,31,1,95
1.2,left,1,0.594,,,,,,,stim/both.png,stim/neutralRight.png,left,180,JEhu,001,2019-08-28_23h44.23.650,ANT,3.1.3,60,,,3,0,3,0,1,2,2,0,96,45,1,95
1.5,left,1,0.795,,,,,,,stim/lower.png,stim/congRight.png,left,180,JEhu,001,2019-08-28_23h44.23.650,ANT,3.1.3,60,,,3,0,3,0,1,2,2,0,96,12,1,95
0.5,left,1,0.778,,,,,,,stim/blank.png,stim/neutralLeft.png,left,0,JEhu,001,2019-08-28_23h44.23.650,ANT,3.1.3,60,,,3,0,3,0,1,2,2,0,96,35,1,95
1.35,left,0,0.794,,,,,,,stim/both.png,stim/incongLeft.png,right,180,JEhu,001,2019-08-28_23h44.23.650,ANT,3.1.3,60,,,3,0,3,0,1,2,2,0,96,21,1,95
0.85,right,1,0.512,,,,,,,stim/upper.png,stim/neutralRight.png,right,0,JEhu,001,2019-08-28_23h44.23.650,ANT,3.1.3,60,,,3,0,3,0,1,2,2,0,96,40,1,95
0.6,left,1,0.829,,,,,,,stim/centre.png,stim/congRight.png,left,180,JEhu,001,2019-08-28_23h44.23.650,ANT,3.1.3,60,,,3,0,3,0,1,2,2,0,96,14,1,95
0.65,right,1,0.747,,,,,,,stim/blank.png,stim/congRight.png,right,0,JEhu,001,2019-08-28_23h44.23.650,ANT,3.1.3,60,,,3,0,3,0,1,2,2,0,96,11,1,95
1.45,right,1,0.728,,,,,,,stim/both.png,stim/congRight.png,right,0,JEhu,001,2019-08-28_23h44.23.650,ANT,3.1.3,60,,,3,0,3,0,1,2,2,0,96,9,1,95
1.3,right,1,0.628,,,,,,,stim/blank.png,stim/neutralLeft.png,right,180,JEhu,001,2019-08-28_23h44.23.650,ANT,3.1.3,60,,,3,0,3,0,1,2,2,0,96,39,1,95
1.05,right,1,0.607,,,,,,,stim/both.png,stim/neutralLeft.png,right,180,JEhu,001,2019-08-28_23h44.23.650,ANT,3.1.3,60,,,3,0,3,0,1,2,2,0,96,37,1,95
0.5,right,1,0.612,,,,,,,stim/centre.png,stim/neutralRight.png,right,0,JEhu,001,2019-08-28_23h44.23.650,ANT,3.1.3,60,,,3,0,3,0,1,2,2,0,96,42,1,95
0.45,right,0,0.812,,,,,,,stim/upper.png,stim/incongLeft.png,left,0,JEhu,001,2019-08-28_23h44.23.650,ANT,3.1.3,60,,,3,0,3,0,1,2,2,0,96,16,1,95
0.7,right,1,0.629,,,,,,,stim/upper.png,stim/congRight.png,right,0,JEhu,001,2019-08-28_23h44.23.650,ANT,3.1.3,60,,,3,0,3,0,1,2,2,0,96,8,1,95
1.3,left,0,0.745,,,,,,,stim/centre.png,stim/incongLeft.png,right,180,JEhu,001,2019-08-28_23h44.23.650,ANT,3.1.3,60,,,3,0,3,0,1,2,2,0,96,22,1,95
1.25,right,1,0.594,,,,,,,stim/centre.png,stim/congRight.png,right,0,JEhu,001,2019-08-28_23h44.23.650,ANT,3.1.3,60,,,3,0,3,0,1,2,2,0,96,10,1,95
0.45,right,1,0.895,,,,,,,stim/lower.png,stim/congLeft.png,right,180,JEhu,001,2019-08-28_23h44.23.650,ANT,3.1.3,60,,,3,0,3,0,1,2,2,0,96,4,1,95
0.6,left,1,0.677,,,,,,,stim/blank.png,stim/neutralRight.png,left,180,JEhu,001,2019-08-28_23h44.23.650,ANT,3.1.3,60,,,3,0,3,0,1,2,2,0,96,47,1,95
0.55,left,1,0.679,,,,,,,stim/centre.png,stim/neutralRight.png,left,180,JEhu,001,2019-08-28_23h44.23.650,ANT,3.1.3,60,,,3,0,3,0,1,2,2,0,96,46,1,95
1,right,0,0.677,,,,,,,stim/both.png,stim/incongLeft.png,left,0,JEhu,001,2019-08-28_23h44.23.650,ANT,3.1.3,60,,,3,0,3,0,1,2,2,0,96,17,1,95
0.7,left,0,0.612,,,,,,,stim/blank.png,stim/incongLeft.png,right,180,JEhu,001,2019-08-28_23h44.23.650,ANT,3.1.3,60,,,3,0,3,0,1,2,2,0,96,23,1,95
0.6,left,1,0.862,,,,,,,stim/upper.png,stim/congLeft.png,left,0,JEhu,001,2019-08-28_23h44.23.650,ANT,3.1.3,60,,,3,0,3,0,1,2,2,0,96,0,1,95
1.3,left,1,0.828,,,,,,,stim/lower.png,stim/neutralRight.png,left,180,JEhu,001,2019-08-28_23h44.23.650,ANT,3.1.3,60,,,3,0,3,0,1,2,2,0,96,44,1,95
0.4,right,1,0.644,,,,,,,stim/centre.png,stim/congLeft.png,right,180,JEhu,001,2019-08-28_23h44.23.650,ANT,3.1.3,60,,,3,0,3,0,1,2,2,0,96,6,1,95
1.35,right,1,0.777,,,,,,,stim/centre.png,stim/neutralLeft.png,right,180,JEhu,001,2019-08-28_23h44.23.650,ANT,3.1.3,60,,,3,0,3,0,1,2,2,0,96,38,1,95
1.55,left,1,0.795,,,,,,,stim/both.png,stim/neutralLeft.png,left,0,JEhu,001,2019-08-28_23h44.23.650,ANT,3.1.3,60,,,3,0,3,0,1,2,2,0,96,33,1,95
0.45,right,0,0.744,,,,,,,stim/both.png,stim/incongRight.png,left,180,JEhu,001,2019-08-28_23h44.23.650,ANT,3.1.3,60,,,3,0,3,0,1,2,2,0,96,29,1,95
0.7,right,1,0.745,,,,,,,stim/both.png,stim/neutralRight.png,right,0,JEhu,001,2019-08-28_23h44.23.650,ANT,3.1.3,60,,,3,0,3,0,1,2,2,0,96,41,1,95
0.6,left,0,1.545,,,,,,,stim/both.png,stim/incongRight.png,right,0,JEhu,001,2019-08-28_23h44.23.650,ANT,3.1.3,60,,,3,0,3,0,1,2,2,0,96,25,1,95
0.45,left,1,0.996,,,,,,,stim/both.png,stim/congRight.png,left,180,JEhu,001,2019-08-28_23h44.23.650,ANT,3.1.3,60,,,3,0,3,0,1,2,2,0,96,13,1,95
1,,0,,,,,,,,stim/centre.png,stim/neutralRight.png,left,180,JEhu,001,2019-08-28_23h44.23.650,ANT,3.1.3,60,,,3,0,3,0,1,2,2,0,96,46,1,95
1.15,right,1,0.928,,,,,,,stim/blank.png,stim/neutralRight.png,right,0,JEhu,001,2019-08-28_23h44.23.650,ANT,3.1.3,60,,,3,0,3,0,1,2,2,0,96,43,1,95
0.55,right,0,0.778,,,,,,,stim/blank.png,stim/incongLeft.png,left,0,JEhu,001,2019-08-28_23h44.23.650,ANT,3.1.3,60,,,3,0,3,0,1,2,2,0,96,19,1,95
1.25,right,1,1.079,,,,,,,stim/both.png,stim/neutralLeft.png,right,180,JEhu,001,2019-08-28_23h44.23.650,ANT,3.1.3,60,,,3,0,3,0,1,2,2,0,96,37,1,95
0.95,right,1,0.612,,,,,,,stim/lower.png,stim/neutralLeft.png,right,180,JEhu,001,2019-08-28_23h44.23.650,ANT,3.1.3,60,,,3,0,3,0,1,2,2,0,96,36,1,95
1.15,right,0,1.196,,,,,,,stim/lower.png,stim/incongRight.png,left,180,JEhu,001,2019-08-28_23h44.23.650,ANT,3.1.3,60,,,3,0,3,0,1,2,2,0,96,28,1,95
0.65,right,1,0.76,,,,,,,stim/upper.png,stim/neutralRight.png,right,0,JEhu,001,2019-08-28_23h44.23.650,ANT,3.1.3,60,,,3,0,3,0,1,2,2,0,96,40,1,95
1.4,left,1,0.546,,,,,,,stim/upper.png,stim/congLeft.png,left,0,JEhu,001,2019-08-28_23h44.23.650,ANT,3.1.3,60,,,3,0,3,0,1,2,2,0,96,0,1,95
0.8,left,0,0.745,,,,,,,stim/both.png,stim/incongRight.png,right,0,JEhu,001,2019-08-28_23h44.23.650,ANT,3.1.3,60,,,3,0,3,0,1,2,2,0,96,25,1,95
0.7,left,1,0.729,,,,,,,stim/upper.png,stim/neutralLeft.png,left,0,JEhu,001,2019-08-28_23h44.23.650,ANT,3.1.3,60,,,3,0,3,0,1,2,2,0,96,32,1,95
0.6,left,1,0.778,,,,,,,stim/both.png,stim/neutralLeft.png,left,0,JEhu,001,2019-08-28_23h44.23.650,ANT,3.1.3,60,,,3,0,3,0,1,2,2,0,96,33,1,95
0.45,right,0,0.745,,,,,,,stim/both.png,stim/incongRight.png,left,180,JEhu,001,2019-08-28_23h44.23.650,ANT,3.1.3,60,,,3,0,3,0,1,2,2,0,96,29,1,95
0.45,left,1,0.695,,,,,,,stim/blank.png,stim/neutralLeft.png,left,0,JEhu,001,2019-08-28_23h44.23.650,ANT,3.1.3,60,,,3,0,3,0,1,2,2,0,96,35,1,95
1.5,left,1,0.662,,,,,,,stim/blank.png,stim/neutralRight.png,left,180,JEhu,001,2019-08-28_23h44.23.650,ANT,3.1.3,60,,,3,0,3,0,1,2,2,0,96,47,1,95
1.4,right,1,0.512,,,,,,,stim/upper.png,stim/congRight.png,right,0,JEhu,001,2019-08-28_23h44.23.650,ANT,3.1.3,60,,,3,0,3,0,1,2,2,0,96,8,1,95
0.75,left,0,0.528,,,,,,,stim/blank.png,stim/incongLeft.png,right,180,JEhu,001,2019-08-28_23h44.23.650,ANT,3.1.3,60,,,3,0,3,0,1,2,2,0,96,23,1,95
1.15,right,1,0.544,,,,,,,stim/blank.png,stim/congRight.png,right,0,JEhu,001,2019-08-28_23h44.23.650,ANT,3.1.3,60,,,3,0,3,0,1,2,2,0,96,11,1,95
1.45,right,1,0.512,,,,,,,stim/lower.png,stim/congLeft.png,right,180,JEhu,001,2019-08-28_23h44.23.650,ANT,3.1.3,60,,,3,0,3,0,1,2,2,0,96,4,1,95
0.45,left,0,0.563,,,,,,,stim/blank.png,stim/incongRight.png,right,0,JEhu,001,2019-08-28_23h44.23.650,ANT,3.1.3,60,,,3,0,3,0,1,2,2,0,96,27,1,95
1.55,left,0,0.894,,,,,,,stim/centre.png,stim/incongRight.png,right,0,JEhu,001,2019-08-28_23h44.23.650,ANT,3.1.3,60,,,3,0,3,0,1,2,2,0,96,26,1,95
0.55,left,0,0.844,,,,,,,stim/lower.png,stim/incongLeft.png,right,180,JEhu,001,2019-08-28_23h44.23.650,ANT,3.1.3,60,,,3,0,3,0,1,2,2,0,96,20,1,95
1.05,right,1,0.478,,,,,,,stim/both.png,stim/congLeft.png,right,180,JEhu,001,2019-08-28_23h44.23.650,ANT,3.1.3,60,,,3,0,3,0,1,2,2,0,96,5,1,95
0.8,right,1,0.511,,,,,,,stim/both.png,stim/congRight.png,right,0,JEhu,001,2019-08-28_23h44.23.650,ANT,3.1.3,60,,,3,0,3,0,1,2,2,0,96,9,1,95
1.45,left,1,0.546,,,,,,,stim/both.png,stim/neutralRight.png,left,180,JEhu,001,2019-08-28_23h44.23.650,ANT,3.1.3,60,,,3,0,3,0,1,2,2,0,96,45,1,95
1.15,left,0,1.196,,,,,,,stim/upper.png,stim/incongRight.png,right,0,JEhu,001,2019-08-28_23h44.23.650,ANT,3.1.3,60,,,3,0,3,0,1,2,2,0,96,24,1,95
1,right,0,0.879,,,,,,,stim/upper.png,stim/incongLeft.png,left,0,JEhu,001,2019-08-28_23h44.23.650,ANT,3.1.3,60,,,3,0,3,0,1,2,2,0,96,16,1,95
1.2,right,0,0.512,,,,,,,stim/centre.png,stim/incongLeft.png,left,0,JEhu,001,2019-08-28_23h44.23.650,ANT,3.1.3,60,,,3,0,3,0,1,2,2,0,96,18,1,95
0.75,left,1,0.595,,,,,,,stim/blank.png,stim/congLeft.png,left,0,JEhu,001,2019-08-28_23h44.23.650,ANT,3.1.3,60,,,3,0,3,0,1,2,2,0,96,3,1,95
1.35,left,1,0.745,,,,,,,stim/centre.png,stim/neutralLeft.png,left,0,JEhu,001,2019-08-28_23h44.23.650,ANT,3.1.3,60,,,3,0,3,0,1,2,2,0,96,34,1,95
0.75,right,1,0.511,,,,,,,stim/centre.png,stim/congRight.png,right,0,JEhu,001,2019-08-28_23h44.23.650,ANT,3.1.3,60,,,3,0,3,0,1,2,2,0,96,10,1,95
0.95,left,1,0.611,,,,,,,stim/lower.png,stim/neutralRight.png,left,180,JEhu,001,2019-08-28_23h44.23.650,ANT,3.1.3,60,,,3,0,3,0,1,2,2,0,96,44,1,95
1.55,left,1,0.511,,,,,,,stim/lower.png,stim/congRight.png,left,180,JEhu,001,2019-08-28_23h44.23.650,ANT,3.1.3,60,,,3,0,3,0,1,2,2,0,96,12,1,95
0.75,right,1,0.611,,,,,,,stim/blank.png,stim/congLeft.png,right,180,JEhu,001,2019-08-28_23h44.23.650,ANT,3.1.3,60,,,3,0,3,0,1,2,2,0,96,7,1,95
0.6,left,0,0.629,,,,,,,stim/both.png,stim/incongLeft.png,right,180,JEhu,001,2019-08-28_23h44.23.650,ANT,3.1.3,60,,,3,0,3,0,1,2,2,0,96,21,1,95
1,right,0,0.746,,,,,,,stim/centre.png,stim/incongRight.png,left,180,JEhu,001,2019-08-28_23h44.23.650,ANT,3.1.3,60,,,3,0,3,0,1,2,2,0,96,30,1,95
1.2,right,1,0.611,,,,,,,stim/centre.png,stim/neutralLeft.png,right,180,JEhu,001,2019-08-28_23h44.23.650,ANT,3.1.3,60,,,3,0,3,0,1,2,2,0,96,38,1,95
1.1,left,0,0.595,,,,,,,stim/centre.png,stim/incongLeft.png,right,180,JEhu,001,2019-08-28_23h44.23.650,ANT,3.1.3,60,,,3,0,3,0,1,2,2,0,96,22,1,95
1.1,right,1,0.645,,,,,,,stim/centre.png,stim/neutralRight.png,right,0,JEhu,001,2019-08-28_23h44.23.650,ANT,3.1.3,60,,,3,0,3,0,1,2,2,0,96,42,1,95
1.35,right,1,0.828,,,,,,,stim/both.png,stim/neutralRight.png,right,0,JEhu,001,2019-08-28_23h44.23.650,ANT,3.1.3,60,,,3,0,3,0,1,2,2,0,96,41,1,95
1.25,left,1,0.545,,,,,,,stim/blank.png,stim/congRight.png,left,180,JEhu,001,2019-08-28_23h44.23.650,ANT,3.1.3,60,,,3,0,3,0,1,2,2,0,96,15,1,95
1.55,left,1,0.544,,,,,,,stim/centre.png,stim/congRight.png,left,180,JEhu,001,2019-08-28_23h44.23.650,ANT,3.1.3,60,,,3,0,3,0,1,2,2,0,96,14,1,95
0.65,right,1,0.677,,,,,,,stim/blank.png,stim/neutralLeft.png,right,180,JEhu,001,2019-08-28_23h44.23.650,ANT,3.1.3,60,,,3,0,3,0,1,2,2,0,96,39,1,95
0.45,right,0,0.728,,,,,,,stim/blank.png,stim/incongRight.png,left,180,JEhu,001,2019-08-28_23h44.23.650,ANT,3.1.3,60,,,3,0,3,0,1,2,2,0,96,31,1,95
0.85,left,1,0.529,,,,,,,stim/both.png,stim/congRight.png,left,180,JEhu,001,2019-08-28_23h44.23.650,ANT,3.1.3,60,,,3,0,3,0,1,2,2,0,96,13,1,95
1.15,left,1,0.496,,,,,,,stim/centre.png,stim/congLeft.png,left,0,JEhu,001,2019-08-28_23h44.23.650,ANT,3.1.3,60,,,3,0,3,0,1,2,2,0,96,2,1,95
1.35,left,1,0.579,,,,,,,stim/both.png,stim/congLeft.png,left,0,JEhu,001,2019-08-28_23h44.23.650,ANT,3.1.3,60,,,3,0,3,0,1,2,2,0,96,1,1,95
0.85,right,1,0.628,,,,,,,stim/centre.png,stim/congLeft.png,right,180,JEhu,001,2019-08-28_23h44.23.650,ANT,3.1.3,60,,,3,0,3,0,1,2,2,0,96,6,1,95
0.85,right,0,0.761,,,,,,,stim/both.png,stim/incongLeft.png,left,0,JEhu,001,2019-08-28_23h44.23.650,ANT,3.1.3,60,,,3,0,3,0,1,2,2,0,96,17,1,95
,,,,,,,,,,,,,,JEhu,001,2019-08-28_23h44.23.650,ANT,3.1.3,60,,,3,0,3,0,1,2,,,,,,
