fixDuration,resp.keys,resp.corr,resp.rt,pracLoop.thisRepN,pracLoop.thisTrialN,pracLoop.thisN,pracLoop.thisIndex,pracLoop.ran,pracLoop.order,cue,tar,corrAns,targOrientation,participant,session,date,expName,psychopyVersion,frameRate,instResp.keys,instResp.rt,blockLoop.thisRepN,blockLoop.thisTrialN,blockLoop.thisN,blockLoop.thisIndex,blockLoop.ran,blockLoop.order,mainLoop.thisRepN,mainLoop.thisTrialN,mainLoop.thisN,mainLoop.thisIndex,mainLoop.ran,mainLoop.order
1.3,left,1,0.63,1,0,3,2,1,2,stim/centre.png,stim/congLeft.png,left,0,kotokot,001,2019-02-20_15h09.12.714,ANT,3.0.0b12,60,,,,,,,,,,,,,,
1.3,left,1,0.442,1,0,3,1,1,2,stim/both.png,stim/congLeft.png,left,0,kotokot,001,2019-02-20_15h09.12.714,ANT,3.0.0b12,60,,,,,,,,,,,,,,
0.9,left,1,0.345,1,0,3,0,1,2,stim/upper.png,stim/congLeft.png,left,0,kotokot,001,2019-02-20_15h09.12.714,ANT,3.0.0b12,60,,,,,,,,,,,,,,
0.8,left,1,0.694,,,,,,,stim/blank.png,stim/neutralLeft.png,left,0,kotokot,001,2019-02-20_15h09.12.714,ANT,3.0.0b12,60,space,11.022,3,0,3,0,1,2,2,0,96,35,1,95
0.5,left,1,0.526,,,,,,,stim/both.png,stim/neutralRight.png,left,180,kotokot,001,2019-02-20_15h09.12.714,ANT,3.0.0b12,60,,,3,0,3,0,1,2,2,0,96,45,1,95
1.2,left,1,0.475,,,,,,,stim/lower.png,stim/congRight.png,left,180,kotokot,001,2019-02-20_15h09.12.714,ANT,3.0.0b12,60,,,3,0,3,0,1,2,2,0,96,12,1,95
1.45,left,0,0.427,,,,,,,stim/blank.png,stim/incongRight.png,right,0,kotokot,001,2019-02-20_15h09.12.714,ANT,3.0.0b12,60,,,3,0,3,0,1,2,2,0,96,27,1,95
0.55,right,1,0.561,,,,,,,stim/centre.png,stim/congLeft.png,right,180,kotokot,001,2019-02-20_15h09.12.714,ANT,3.0.0b12,60,,,3,0,3,0,1,2,2,0,96,6,1,95
1.05,right,1,0.444,,,,,,,stim/both.png,stim/congRight.png,right,0,kotokot,001,2019-02-20_15h09.12.714,ANT,3.0.0b12,60,,,3,0,3,0,1,2,2,0,96,9,1,95
0.7,right,1,0.494,,,,,,,stim/blank.png,stim/congLeft.png,right,180,kotokot,001,2019-02-20_15h09.12.714,ANT,3.0.0b12,60,,,3,0,3,0,1,2,2,0,96,7,1,95
1.3,left,0,0.395,,,,,,,stim/both.png,stim/incongRight.png,right,0,kotokot,001,2019-02-20_15h09.12.714,ANT,3.0.0b12,60,,,3,0,3,0,1,2,2,0,96,25,1,95
0.75,left,1,0.777,,,,,,,stim/blank.png,stim/neutralRight.png,left,180,kotokot,001,2019-02-20_15h09.12.714,ANT,3.0.0b12,60,,,3,0,3,0,1,2,2,0,96,47,1,95
0.4,left,1,0.593,,,,,,,stim/both.png,stim/congRight.png,left,180,kotokot,001,2019-02-20_15h09.12.714,ANT,3.0.0b12,60,,,3,0,3,0,1,2,2,0,96,13,1,95
1.1,left,0,0.993,,,,,,,stim/lower.png,stim/incongLeft.png,right,180,kotokot,001,2019-02-20_15h09.12.714,ANT,3.0.0b12,60,,,3,0,3,0,1,2,2,0,96,20,1,95
0.65,right,0,0.828,,,,,,,stim/blank.png,stim/incongLeft.png,left,0,kotokot,001,2019-02-20_15h09.12.714,ANT,3.0.0b12,60,,,3,0,3,0,1,2,2,0,96,19,1,95
1.1,right,1,0.728,,,,,,,stim/lower.png,stim/neutralLeft.png,right,180,kotokot,001,2019-02-20_15h09.12.714,ANT,3.0.0b12,60,,,3,0,3,0,1,2,2,0,96,36,1,95
1.45,left,1,0.497,,,,,,,stim/centre.png,stim/neutralLeft.png,left,0,kotokot,001,2019-02-20_15h09.12.714,ANT,3.0.0b12,60,,,3,0,3,0,1,2,2,0,96,34,1,95
1.1,right,0,0.38,,,,,,,stim/lower.png,stim/neutralRight.png,left,180,kotokot,001,2019-02-20_15h09.12.714,ANT,3.0.0b12,60,,,3,0,3,0,1,2,2,0,96,44,1,95
1,right,0,0.679,,,,,,,stim/centre.png,stim/incongLeft.png,left,0,kotokot,001,2019-02-20_15h09.12.714,ANT,3.0.0b12,60,,,3,0,3,0,1,2,2,0,96,18,1,95
1.05,left,0,0.73,,,,,,,stim/upper.png,stim/incongRight.png,right,0,kotokot,001,2019-02-20_15h09.12.714,ANT,3.0.0b12,60,,,3,0,3,0,1,2,2,0,96,24,1,95
1.15,left,1,0.561,,,,,,,stim/centre.png,stim/congRight.png,left,180,kotokot,001,2019-02-20_15h09.12.714,ANT,3.0.0b12,60,,,3,0,3,0,1,2,2,0,96,14,1,95
1.55,right,1,0.445,,,,,,,stim/lower.png,stim/congLeft.png,right,180,kotokot,001,2019-02-20_15h09.12.714,ANT,3.0.0b12,60,,,3,0,3,0,1,2,2,0,96,4,1,95
1.25,left,1,0.395,,,,,,,stim/upper.png,stim/congLeft.png,left,0,kotokot,001,2019-02-20_15h09.12.714,ANT,3.0.0b12,60,,,3,0,3,0,1,2,2,0,96,0,1,95
1.4,left,1,0.395,,,,,,,stim/both.png,stim/congLeft.png,left,0,kotokot,001,2019-02-20_15h09.12.714,ANT,3.0.0b12,60,,,3,0,3,0,1,2,2,0,96,1,1,95
0.45,right,1,0.511,,,,,,,stim/blank.png,stim/neutralRight.png,right,0,kotokot,001,2019-02-20_15h09.12.714,ANT,3.0.0b12,60,,,3,0,3,0,1,2,2,0,96,43,1,95
0.7,right,0,0.496,,,,,,,stim/blank.png,stim/incongRight.png,left,180,kotokot,001,2019-02-20_15h09.12.714,ANT,3.0.0b12,60,,,3,0,3,0,1,2,2,0,96,31,1,95
1.45,left,1,0.361,,,,,,,stim/blank.png,stim/congLeft.png,left,0,kotokot,001,2019-02-20_15h09.12.714,ANT,3.0.0b12,60,,,3,0,3,0,1,2,2,0,96,3,1,95
1.3,right,1,0.495,,,,,,,stim/centre.png,stim/congRight.png,right,0,kotokot,001,2019-02-20_15h09.12.714,ANT,3.0.0b12,60,,,3,0,3,0,1,2,2,0,96,10,1,95
0.75,left,1,0.394,,,,,,,stim/both.png,stim/incongRight.png,left,180,kotokot,001,2019-02-20_15h09.12.714,ANT,3.0.0b12,60,,,3,0,3,0,1,2,2,0,96,29,1,95
1.35,right,1,0.478,,,,,,,stim/blank.png,stim/congRight.png,right,0,kotokot,001,2019-02-20_15h09.12.714,ANT,3.0.0b12,60,,,3,0,3,0,1,2,2,0,96,11,1,95
1.25,left,0,0.459,,,,,,,stim/blank.png,stim/incongLeft.png,right,180,kotokot,001,2019-02-20_15h09.12.714,ANT,3.0.0b12,60,,,3,0,3,0,1,2,2,0,96,23,1,95
1.2,left,1,0.428,,,,,,,stim/centre.png,stim/congLeft.png,left,0,kotokot,001,2019-02-20_15h09.12.714,ANT,3.0.0b12,60,,,3,0,3,0,1,2,2,0,96,2,1,95
1.45,right,1,0.43,,,,,,,stim/blank.png,stim/neutralLeft.png,right,180,kotokot,001,2019-02-20_15h09.12.714,ANT,3.0.0b12,60,,,3,0,3,0,1,2,2,0,96,39,1,95
1.45,right,1,0.496,,,,,,,stim/upper.png,stim/neutralRight.png,right,0,kotokot,001,2019-02-20_15h09.12.714,ANT,3.0.0b12,60,,,3,0,3,0,1,2,2,0,96,40,1,95
0.55,right,0,0.56,,,,,,,stim/upper.png,stim/incongLeft.png,left,0,kotokot,001,2019-02-20_15h09.12.714,ANT,3.0.0b12,60,,,3,0,3,0,1,2,2,0,96,16,1,95
0.85,left,0,0.295,,,,,,,stim/centre.png,stim/incongLeft.png,right,180,kotokot,001,2019-02-20_15h09.12.714,ANT,3.0.0b12,60,,,3,0,3,0,1,2,2,0,96,22,1,95
0.95,right,0,0.279,,,,,,,stim/both.png,stim/incongLeft.png,left,0,kotokot,001,2019-02-20_15h09.12.714,ANT,3.0.0b12,60,,,3,0,3,0,1,2,2,0,96,17,1,95
0.95,left,1,0.326,,,,,,,stim/blank.png,stim/congRight.png,left,180,kotokot,001,2019-02-20_15h09.12.714,ANT,3.0.0b12,60,,,3,0,3,0,1,2,2,0,96,15,1,95
1.1,right,1,0.312,,,,,,,stim/upper.png,stim/congRight.png,right,0,kotokot,001,2019-02-20_15h09.12.714,ANT,3.0.0b12,60,,,3,0,3,0,1,2,2,0,96,8,1,95
0.65,left,1,0.51,,,,,,,stim/upper.png,stim/neutralLeft.png,left,0,kotokot,001,2019-02-20_15h09.12.714,ANT,3.0.0b12,60,,,3,0,3,0,1,2,2,0,96,32,1,95
0.95,right,1,0.328,,,,,,,stim/both.png,stim/incongLeft.png,right,180,kotokot,001,2019-02-20_15h09.12.714,ANT,3.0.0b12,60,,,3,0,3,0,1,2,2,0,96,21,1,95
1.25,right,1,0.479,,,,,,,stim/centre.png,stim/neutralRight.png,right,0,kotokot,001,2019-02-20_15h09.12.714,ANT,3.0.0b12,60,,,3,0,3,0,1,2,2,0,96,42,1,95
0.65,right,1,0.545,,,,,,,stim/centre.png,stim/neutralLeft.png,right,180,kotokot,001,2019-02-20_15h09.12.714,ANT,3.0.0b12,60,,,3,0,3,0,1,2,2,0,96,38,1,95
1.4,right,0,0.494,,,,,,,stim/centre.png,stim/incongRight.png,left,180,kotokot,001,2019-02-20_15h09.12.714,ANT,3.0.0b12,60,,,3,0,3,0,1,2,2,0,96,30,1,95
1.2,left,1,0.428,,,,,,,stim/both.png,stim/neutralLeft.png,left,0,kotokot,001,2019-02-20_15h09.12.714,ANT,3.0.0b12,60,,,3,0,3,0,1,2,2,0,96,33,1,95
1.2,right,0,0.559,,,,,,,stim/lower.png,stim/incongRight.png,left,180,kotokot,001,2019-02-20_15h09.12.714,ANT,3.0.0b12,60,,,3,0,3,0,1,2,2,0,96,28,1,95
0.75,right,1,0.594,,,,,,,stim/both.png,stim/neutralRight.png,right,0,kotokot,001,2019-02-20_15h09.12.714,ANT,3.0.0b12,60,,,3,0,3,0,1,2,2,0,96,41,1,95
1.25,,0,,,,,,,,stim/both.png,stim/congLeft.png,right,180,kotokot,001,2019-02-20_15h09.12.714,ANT,3.0.0b12,60,,,3,0,3,0,1,2,2,0,96,5,1,95
