fixDuration,resp.keys,resp.corr,resp.rt,pracLoop.thisRepN,pracLoop.thisTrialN,pracLoop.thisN,pracLoop.thisIndex,pracLoop.ran,pracLoop.order,cue,tar,corrAns,targOrientation,participant,session,date,expName,psychopyVersion,frameRate,instResp.keys,instResp.rt,blockLoop.thisRepN,blockLoop.thisTrialN,blockLoop.thisN,blockLoop.thisIndex,blockLoop.ran,blockLoop.order,mainLoop.thisRepN,mainLoop.thisTrialN,mainLoop.thisN,mainLoop.thisIndex,mainLoop.ran,mainLoop.order
0.8,right,1,0.558,1,0,24,11,1,23,stim/blank.png,stim/congRight.png,right,0,plop,001,2019-07-17_10h00.40.891,ANT,3.1.3,60,,,,,,,,,,,,,,
0.95,left,1,0.424,1,0,24,13,1,23,stim/both.png,stim/congRight.png,left,180,plop,001,2019-07-17_10h00.40.891,ANT,3.1.3,60,,,,,,,,,,,,,,
0.6,left,1,0.526,1,0,24,15,1,23,stim/blank.png,stim/congRight.png,left,180,plop,001,2019-07-17_10h00.40.891,ANT,3.1.3,60,,,,,,,,,,,,,,
0.55,right,1,0.413,1,0,24,5,1,23,stim/both.png,stim/congLeft.png,right,180,plop,001,2019-07-17_10h00.40.891,ANT,3.1.3,60,,,,,,,,,,,,,,
1.05,left,0,0.344,1,0,24,22,1,23,stim/centre.png,stim/incongLeft.png,right,180,plop,001,2019-07-17_10h00.40.891,ANT,3.1.3,60,,,,,,,,,,,,,,
1.5,right,1,0.576,1,0,24,21,1,23,stim/both.png,stim/incongLeft.png,right,180,plop,001,2019-07-17_10h00.40.891,ANT,3.1.3,60,,,,,,,,,,,,,,
1.3,left,1,0.493,1,0,24,2,1,23,stim/centre.png,stim/congLeft.png,left,0,plop,001,2019-07-17_10h00.40.891,ANT,3.1.3,60,,,,,,,,,,,,,,
1.1,left,1,0.46,1,0,24,1,1,23,stim/both.png,stim/congLeft.png,left,0,plop,001,2019-07-17_10h00.40.891,ANT,3.1.3,60,,,,,,,,,,,,,,
0.45,left,1,0.513,1,0,24,16,1,23,stim/upper.png,stim/incongLeft.png,left,0,plop,001,2019-07-17_10h00.40.891,ANT,3.1.3,60,,,,,,,,,,,,,,
0.7,left,1,0.48,1,0,24,18,1,23,stim/centre.png,stim/incongLeft.png,left,0,plop,001,2019-07-17_10h00.40.891,ANT,3.1.3,60,,,,,,,,,,,,,,
0.75,right,1,0.393,1,0,24,9,1,23,stim/both.png,stim/congRight.png,right,0,plop,001,2019-07-17_10h00.40.891,ANT,3.1.3,60,,,,,,,,,,,,,,
0.85,left,1,0.677,1,0,24,19,1,23,stim/blank.png,stim/incongLeft.png,left,0,plop,001,2019-07-17_10h00.40.891,ANT,3.1.3,60,,,,,,,,,,,,,,
0.55,right,1,0.495,1,0,24,10,1,23,stim/centre.png,stim/congRight.png,right,0,plop,001,2019-07-17_10h00.40.891,ANT,3.1.3,60,,,,,,,,,,,,,,
1.35,right,1,0.361,1,0,24,8,1,23,stim/upper.png,stim/congRight.png,right,0,plop,001,2019-07-17_10h00.40.891,ANT,3.1.3,60,,,,,,,,,,,,,,
1,left,1,0.427,1,0,24,3,1,23,stim/blank.png,stim/congLeft.png,left,0,plop,001,2019-07-17_10h00.40.891,ANT,3.1.3,60,,,,,,,,,,,,,,
0.9,left,0,0.462,1,0,24,20,1,23,stim/lower.png,stim/incongLeft.png,right,180,plop,001,2019-07-17_10h00.40.891,ANT,3.1.3,60,,,,,,,,,,,,,,
0.85,left,1,0.479,1,0,24,12,1,23,stim/lower.png,stim/congRight.png,left,180,plop,001,2019-07-17_10h00.40.891,ANT,3.1.3,60,,,,,,,,,,,,,,
1.2,right,1,0.443,1,0,24,7,1,23,stim/blank.png,stim/congLeft.png,right,180,plop,001,2019-07-17_10h00.40.891,ANT,3.1.3,60,,,,,,,,,,,,,,
1.45,left,1,0.327,1,0,24,0,1,23,stim/upper.png,stim/congLeft.png,left,0,plop,001,2019-07-17_10h00.40.891,ANT,3.1.3,60,,,,,,,,,,,,,,
1.1,right,0,0.362,1,0,24,17,1,23,stim/both.png,stim/incongLeft.png,left,0,plop,001,2019-07-17_10h00.40.891,ANT,3.1.3,60,,,,,,,,,,,,,,
1,left,1,0.444,1,0,24,14,1,23,stim/centre.png,stim/congRight.png,left,180,plop,001,2019-07-17_10h00.40.891,ANT,3.1.3,60,,,,,,,,,,,,,,
1.15,right,1,0.41,1,0,24,4,1,23,stim/lower.png,stim/congLeft.png,right,180,plop,001,2019-07-17_10h00.40.891,ANT,3.1.3,60,,,,,,,,,,,,,,
0.5,right,1,0.593,1,0,24,23,1,23,stim/blank.png,stim/incongLeft.png,right,180,plop,001,2019-07-17_10h00.40.891,ANT,3.1.3,60,,,,,,,,,,,,,,
0.9,right,1,0.394,1,0,24,6,1,23,stim/centre.png,stim/congLeft.png,right,180,plop,001,2019-07-17_10h00.40.891,ANT,3.1.3,60,,,,,,,,,,,,,,
1.15,left,1,0.445,,,,,,,stim/both.png,stim/neutralLeft.png,left,0,plop,001,2019-07-17_10h00.40.891,ANT,3.1.3,60,space,9.898,3,0,3,0,1,2,2,0,96,33,1,95
1.05,right,1,0.46,,,,,,,stim/blank.png,stim/neutralRight.png,right,0,plop,001,2019-07-17_10h00.40.891,ANT,3.1.3,60,,,3,0,3,0,1,2,2,0,96,43,1,95
0.65,right,0,0.36,,,,,,,stim/blank.png,stim/incongLeft.png,left,0,plop,001,2019-07-17_10h00.40.891,ANT,3.1.3,60,,,3,0,3,0,1,2,2,0,96,19,1,95
0.7,right,1,0.429,,,,,,,stim/upper.png,stim/neutralRight.png,right,0,plop,001,2019-07-17_10h00.40.891,ANT,3.1.3,60,,,3,0,3,0,1,2,2,0,96,40,1,95
1.15,right,1,0.393,,,,,,,stim/centre.png,stim/congRight.png,right,0,plop,001,2019-07-17_10h00.40.891,ANT,3.1.3,60,,,3,0,3,0,1,2,2,0,96,10,1,95
1.45,left,1,0.428,,,,,,,stim/blank.png,stim/neutralLeft.png,left,0,plop,001,2019-07-17_10h00.40.891,ANT,3.1.3,60,,,3,0,3,0,1,2,2,0,96,35,1,95
0.65,left,1,0.377,,,,,,,stim/blank.png,stim/congLeft.png,left,0,plop,001,2019-07-17_10h00.40.891,ANT,3.1.3,60,,,3,0,3,0,1,2,2,0,96,3,1,95
0.45,left,1,0.376,,,,,,,stim/centre.png,stim/neutralLeft.png,left,0,plop,001,2019-07-17_10h00.40.891,ANT,3.1.3,60,,,3,0,3,0,1,2,2,0,96,34,1,95
0.65,right,0,0.411,,,,,,,stim/centre.png,stim/incongRight.png,left,180,plop,001,2019-07-17_10h00.40.891,ANT,3.1.3,60,,,3,0,3,0,1,2,2,0,96,30,1,95
0.75,left,1,0.594,,,,,,,stim/centre.png,stim/incongLeft.png,left,0,plop,001,2019-07-17_10h00.40.891,ANT,3.1.3,60,,,3,0,3,0,1,2,2,0,96,18,1,95
1.1,left,1,0.396,,,,,,,stim/centre.png,stim/congLeft.png,left,0,plop,001,2019-07-17_10h00.40.891,ANT,3.1.3,60,,,3,0,3,0,1,2,2,0,96,2,1,95
