fixDuration,resp.keys,resp.corr,resp.rt,pracLoop.thisRepN,pracLoop.thisTrialN,pracLoop.thisN,pracLoop.thisIndex,pracLoop.ran,pracLoop.order,cue,tar,corrAns,targOrientation,participant,session,date,expName,psychopyVersion,frameRate,instResp.keys,instResp.rt,blockLoop.thisRepN,blockLoop.thisTrialN,blockLoop.thisN,blockLoop.thisIndex,blockLoop.ran,blockLoop.order,mainLoop.thisRepN,mainLoop.thisTrialN,mainLoop.thisN,mainLoop.thisIndex,mainLoop.ran,mainLoop.order
0.65,left,1,1.312999964,1,0,24,14,1,23,stim/centre.png,stim/congRight.png,left,180,qiu,001,2020-01-17_15h11.58.903,ANT,3.1.3,60,,,,,,,,,,,,,,
1.15,right,1,0.646999836,1,0,24,10,1,23,stim/centre.png,stim/congRight.png,right,0,qiu,001,2020-01-17_15h11.58.903,ANT,3.1.3,60,,,,,,,,,,,,,,
1.4,right,1,0.624000072,1,0,24,7,1,23,stim/blank.png,stim/congLeft.png,right,180,qiu,001,2020-01-17_15h11.58.903,ANT,3.1.3,60,,,,,,,,,,,,,,
0.85,,0,,1,0,24,17,1,23,stim/both.png,stim/incongLeft.png,left,0,qiu,001,2020-01-17_15h11.58.903,ANT,3.1.3,60,,,,,,,,,,,,,,
0.75,left,1,0.648000002,1,0,24,12,1,23,stim/lower.png,stim/congRight.png,left,180,qiu,001,2020-01-17_15h11.58.903,ANT,3.1.3,60,,,,,,,,,,,,,,
1.4,right,1,0.546999931,1,0,24,4,1,23,stim/lower.png,stim/congLeft.png,right,180,qiu,001,2020-01-17_15h11.58.903,ANT,3.1.3,60,,,,,,,,,,,,,,
1.15,left,1,0.613999844,1,0,24,0,1,23,stim/upper.png,stim/congLeft.png,left,0,qiu,001,2020-01-17_15h11.58.903,ANT,3.1.3,60,,,,,,,,,,,,,,
1.25,left,1,0.614000082,1,0,24,1,1,23,stim/both.png,stim/congLeft.png,left,0,qiu,001,2020-01-17_15h11.58.903,ANT,3.1.3,60,,,,,,,,,,,,,,
0.9,right,1,0.697000027,1,0,24,20,1,23,stim/lower.png,stim/incongLeft.png,right,180,qiu,001,2020-01-17_15h11.58.903,ANT,3.1.3,60,,,,,,,,,,,,,,
0.45,left,1,0.781000137,1,0,24,19,1,23,stim/blank.png,stim/incongLeft.png,left,0,qiu,001,2020-01-17_15h11.58.903,ANT,3.1.3,60,,,,,,,,,,,,,,
1.55,right,1,0.514999866,1,0,24,9,1,23,stim/both.png,stim/congRight.png,right,0,qiu,001,2020-01-17_15h11.58.903,ANT,3.1.3,60,,,,,,,,,,,,,,
1.5,right,1,0.563999891,1,0,24,11,1,23,stim/blank.png,stim/congRight.png,right,0,qiu,001,2020-01-17_15h11.58.903,ANT,3.1.3,60,,,,,,,,,,,,,,
0.75,left,1,0.648000002,1,0,24,3,1,23,stim/blank.png,stim/congLeft.png,left,0,qiu,001,2020-01-17_15h11.58.903,ANT,3.1.3,60,,,,,,,,,,,,,,
1.55,right,1,0.328999996,1,0,24,8,1,23,stim/upper.png,stim/congRight.png,right,0,qiu,001,2020-01-17_15h11.58.903,ANT,3.1.3,60,,,,,,,,,,,,,,
1.3,right,1,0.447000027,1,0,24,6,1,23,stim/centre.png,stim/congLeft.png,right,180,qiu,001,2020-01-17_15h11.58.903,ANT,3.1.3,60,,,,,,,,,,,,,,
1.1,left,0,0.463999987,1,0,24,22,1,23,stim/centre.png,stim/incongLeft.png,right,180,qiu,001,2020-01-17_15h11.58.903,ANT,3.1.3,60,,,,,,,,,,,,,,
0.6,right,0,0.414000034,1,0,24,18,1,23,stim/centre.png,stim/incongLeft.png,left,0,qiu,001,2020-01-17_15h11.58.903,ANT,3.1.3,60,,,,,,,,,,,,,,
1.45,left,1,0.480000019,1,0,24,13,1,23,stim/both.png,stim/congRight.png,left,180,qiu,001,2020-01-17_15h11.58.903,ANT,3.1.3,60,,,,,,,,,,,,,,
1.1,right,1,0.680000067,1,0,24,23,1,23,stim/blank.png,stim/incongLeft.png,right,180,qiu,001,2020-01-17_15h11.58.903,ANT,3.1.3,60,,,,,,,,,,,,,,
0.7,left,1,0.597000122,1,0,24,15,1,23,stim/blank.png,stim/congRight.png,left,180,qiu,001,2020-01-17_15h11.58.903,ANT,3.1.3,60,,,,,,,,,,,,,,
1.05,right,1,0.429000139,1,0,24,5,1,23,stim/both.png,stim/congLeft.png,right,180,qiu,001,2020-01-17_15h11.58.903,ANT,3.1.3,60,,,,,,,,,,,,,,
1.45,left,0,0.414999962,1,0,24,21,1,23,stim/both.png,stim/incongLeft.png,right,180,qiu,001,2020-01-17_15h11.58.903,ANT,3.1.3,60,,,,,,,,,,,,,,
0.7,left,1,0.546999931,1,0,24,2,1,23,stim/centre.png,stim/congLeft.png,left,0,qiu,001,2020-01-17_15h11.58.903,ANT,3.1.3,60,,,,,,,,,,,,,,
0.45,right,0,0.447000027,1,0,24,16,1,23,stim/upper.png,stim/incongLeft.png,left,0,qiu,001,2020-01-17_15h11.58.903,ANT,3.1.3,60,,,,,,,,,,,,,,
0.55,left,1,0.430999994,,,,,,,stim/lower.png,stim/congRight.png,left,180,qiu,001,2020-01-17_15h11.58.903,ANT,3.1.3,60,space,18.67200017,3,0,3,0,1,2,2,0,96,12,1,95
1.05,left,1,0.463000059,,,,,,,stim/upper.png,stim/neutralLeft.png,left,0,qiu,001,2020-01-17_15h11.58.903,ANT,3.1.3,60,,,3,0,3,0,1,2,2,0,96,32,1,95
1.55,right,0,0.414999962,,,,,,,stim/upper.png,stim/incongLeft.png,left,0,qiu,001,2020-01-17_15h11.58.903,ANT,3.1.3,60,,,3,0,3,0,1,2,2,0,96,16,1,95
1,left,0,0.514999866,,,,,,,stim/blank.png,stim/neutralRight.png,right,0,qiu,001,2020-01-17_15h11.58.903,ANT,3.1.3,60,,,3,0,3,0,1,2,2,0,96,43,1,95
1.55,left,1,0.529999971,,,,,,,stim/lower.png,stim/neutralRight.png,left,180,qiu,001,2020-01-17_15h11.58.903,ANT,3.1.3,60,,,3,0,3,0,1,2,2,0,96,44,1,95
1.1,right,1,0.498000145,,,,,,,stim/blank.png,stim/congRight.png,right,0,qiu,001,2020-01-17_15h11.58.903,ANT,3.1.3,60,,,3,0,3,0,1,2,2,0,96,11,1,95
0.75,left,1,0.564999819,,,,,,,stim/blank.png,stim/incongRight.png,left,180,qiu,001,2020-01-17_15h11.58.903,ANT,3.1.3,60,,,3,0,3,0,1,2,2,0,96,31,1,95
0.75,right,1,0.497999907,,,,,,,stim/upper.png,stim/incongRight.png,right,0,qiu,001,2020-01-17_15h11.58.903,ANT,3.1.3,60,,,3,0,3,0,1,2,2,0,96,24,1,95
0.65,right,1,0.514000177,,,,,,,stim/centre.png,stim/incongLeft.png,right,180,qiu,001,2020-01-17_15h11.58.903,ANT,3.1.3,60,,,3,0,3,0,1,2,2,0,96,22,1,95
0.9,left,1,0.480999947,,,,,,,stim/centre.png,stim/neutralLeft.png,left,0,qiu,001,2020-01-17_15h11.58.903,ANT,3.1.3,60,,,3,0,3,0,1,2,2,0,96,34,1,95
0.95,left,1,0.447000027,,,,,,,stim/centre.png,stim/neutralRight.png,left,180,qiu,001,2020-01-17_15h11.58.903,ANT,3.1.3,60,,,3,0,3,0,1,2,2,0,96,46,1,95
0.7,right,1,0.482000113,,,,,,,stim/upper.png,stim/congRight.png,right,0,qiu,001,2020-01-17_15h11.58.903,ANT,3.1.3,60,,,3,0,3,0,1,2,2,0,96,8,1,95
1.25,left,1,0.596000195,,,,,,,stim/centre.png,stim/incongLeft.png,left,0,qiu,001,2020-01-17_15h11.58.903,ANT,3.1.3,60,,,3,0,3,0,1,2,2,0,96,18,1,95
1.25,left,1,0.496000051,,,,,,,stim/both.png,stim/neutralRight.png,left,180,qiu,001,2020-01-17_15h11.58.903,ANT,3.1.3,60,,,3,0,3,0,1,2,2,0,96,45,1,95
1.2,left,0,0.447999954,,,,,,,stim/lower.png,stim/incongLeft.png,right,180,qiu,001,2020-01-17_15h11.58.903,ANT,3.1.3,60,,,3,0,3,0,1,2,2,0,96,20,1,95
1.2,right,0,0.478999853,,,,,,,stim/both.png,stim/incongRight.png,left,180,qiu,001,2020-01-17_15h11.58.903,ANT,3.1.3,60,,,3,0,3,0,1,2,2,0,96,29,1,95
0.6,left,1,0.596999884,,,,,,,stim/blank.png,stim/neutralRight.png,left,180,qiu,001,2020-01-17_15h11.58.903,ANT,3.1.3,60,,,3,0,3,0,1,2,2,0,96,47,1,95
1.2,right,1,0.59800005,,,,,,,stim/both.png,stim/congLeft.png,right,180,qiu,001,2020-01-17_15h11.58.903,ANT,3.1.3,60,,,3,0,3,0,1,2,2,0,96,5,1,95
0.4,right,1,0.696000099,,,,,,,stim/both.png,stim/incongRight.png,right,0,qiu,001,2020-01-17_15h11.58.903,ANT,3.1.3,60,,,3,0,3,0,1,2,2,0,96,25,1,95
0.4,left,1,0.629999876,,,,,,,stim/blank.png,stim/congRight.png,left,180,qiu,001,2020-01-17_15h11.58.903,ANT,3.1.3,60,,,3,0,3,0,1,2,2,0,96,15,1,95
1.05,left,1,0.763000011,,,,,,,stim/blank.png,stim/neutralLeft.png,left,0,qiu,001,2020-01-17_15h11.58.903,ANT,3.1.3,60,,,3,0,3,0,1,2,2,0,96,35,1,95
0.65,left,1,0.430999994,,,,,,,stim/both.png,stim/congRight.png,left,180,qiu,001,2020-01-17_15h11.58.903,ANT,3.1.3,60,,,3,0,3,0,1,2,2,0,96,13,1,95
1.15,left,1,0.379999876,,,,,,,stim/both.png,stim/congLeft.png,left,0,qiu,001,2020-01-17_15h11.58.903,ANT,3.1.3,60,,,3,0,3,0,1,2,2,0,96,1,1,95
0.6,right,1,0.514999866,,,,,,,stim/centre.png,stim/congRight.png,right,0,qiu,001,2020-01-17_15h11.58.903,ANT,3.1.3,60,,,3,0,3,0,1,2,2,0,96,10,1,95
1.2,left,1,0.447000027,,,,,,,stim/both.png,stim/neutralLeft.png,left,0,qiu,001,2020-01-17_15h11.58.903,ANT,3.1.3,60,,,3,0,3,0,1,2,2,0,96,33,1,95
0.95,left,1,0.411999941,,,,,,,stim/blank.png,stim/congLeft.png,left,0,qiu,001,2020-01-17_15h11.58.903,ANT,3.1.3,60,,,3,0,3,0,1,2,2,0,96,3,1,95
1.05,left,1,0.464999914,,,,,,,stim/blank.png,stim/incongLeft.png,left,0,qiu,001,2020-01-17_15h11.58.903,ANT,3.1.3,60,,,3,0,3,0,1,2,2,0,96,19,1,95
1.45,right,1,0.447999954,,,,,,,stim/blank.png,stim/congLeft.png,right,180,qiu,001,2020-01-17_15h11.58.903,ANT,3.1.3,60,,,3,0,3,0,1,2,2,0,96,7,1,95
0.75,right,1,0.645999908,,,,,,,stim/blank.png,stim/incongRight.png,right,0,qiu,001,2020-01-17_15h11.58.903,ANT,3.1.3,60,,,3,0,3,0,1,2,2,0,96,27,1,95
1.35,left,0,0.513999939,,,,,,,stim/centre.png,stim/neutralRight.png,right,0,qiu,001,2020-01-17_15h11.58.903,ANT,3.1.3,60,,,3,0,3,0,1,2,2,0,96,42,1,95
0.75,right,0,0.427999973,,,,,,,stim/both.png,stim/incongLeft.png,left,0,qiu,001,2020-01-17_15h11.58.903,ANT,3.1.3,60,,,3,0,3,0,1,2,2,0,96,17,1,95
0.95,right,1,0.463999987,,,,,,,stim/blank.png,stim/neutralLeft.png,right,180,qiu,001,2020-01-17_15h11.58.903,ANT,3.1.3,60,,,3,0,3,0,1,2,2,0,96,39,1,95
0.85,right,1,0.463999987,,,,,,,stim/both.png,stim/congRight.png,right,0,qiu,001,2020-01-17_15h11.58.903,ANT,3.1.3,60,,,3,0,3,0,1,2,2,0,96,9,1,95
1.15,right,0,0.479999781,,,,,,,stim/centre.png,stim/incongRight.png,left,180,qiu,001,2020-01-17_15h11.58.903,ANT,3.1.3,60,,,3,0,3,0,1,2,2,0,96,30,1,95
1.45,right,1,0.565000057,,,,,,,stim/centre.png,stim/incongRight.png,right,0,qiu,001,2020-01-17_15h11.58.903,ANT,3.1.3,60,,,3,0,3,0,1,2,2,0,96,26,1,95
1.25,right,1,0.414000034,,,,,,,stim/lower.png,stim/congLeft.png,right,180,qiu,001,2020-01-17_15h11.58.903,ANT,3.1.3,60,,,3,0,3,0,1,2,2,0,96,4,1,95
1.15,left,1,0.498999834,,,,,,,stim/upper.png,stim/congLeft.png,left,0,qiu,001,2020-01-17_15h11.58.903,ANT,3.1.3,60,,,3,0,3,0,1,2,2,0,96,0,1,95
1.05,right,1,0.497999907,,,,,,,stim/lower.png,stim/neutralLeft.png,right,180,qiu,001,2020-01-17_15h11.58.903,ANT,3.1.3,60,,,3,0,3,0,1,2,2,0,96,36,1,95
0.55,left,1,0.548000097,,,,,,,stim/centre.png,stim/congLeft.png,left,0,qiu,001,2020-01-17_15h11.58.903,ANT,3.1.3,60,,,3,0,3,0,1,2,2,0,96,2,1,95
0.6,right,1,0.530999899,,,,,,,stim/both.png,stim/incongLeft.png,right,180,qiu,001,2020-01-17_15h11.58.903,ANT,3.1.3,60,,,3,0,3,0,1,2,2,0,96,21,1,95
1.55,right,1,0.463000059,,,,,,,stim/centre.png,stim/neutralLeft.png,right,180,qiu,001,2020-01-17_15h11.58.903,ANT,3.1.3,60,,,3,0,3,0,1,2,2,0,96,38,1,95
0.45,right,1,0.429999828,,,,,,,stim/blank.png,stim/incongLeft.png,right,180,qiu,001,2020-01-17_15h11.58.903,ANT,3.1.3,60,,,3,0,3,0,1,2,2,0,96,23,1,95
0.6,right,0,0.664999962,,,,,,,stim/lower.png,stim/incongRight.png,left,180,qiu,001,2020-01-17_15h11.58.903,ANT,3.1.3,60,,,3,0,3,0,1,2,2,0,96,28,1,95
0.5,right,1,0.513000011,,,,,,,stim/both.png,stim/neutralLeft.png,right,180,qiu,001,2020-01-17_15h11.58.903,ANT,3.1.3,60,,,3,0,3,0,1,2,2,0,96,37,1,95
0.7,right,1,0.412999868,,,,,,,stim/centre.png,stim/congLeft.png,right,180,qiu,001,2020-01-17_15h11.58.903,ANT,3.1.3,60,,,3,0,3,0,1,2,2,0,96,6,1,95
1.25,left,1,0.481999874,,,,,,,stim/centre.png,stim/congRight.png,left,180,qiu,001,2020-01-17_15h11.58.903,ANT,3.1.3,60,,,3,0,3,0,1,2,2,0,96,14,1,95
0.75,right,1,0.463999987,,,,,,,stim/upper.png,stim/neutralRight.png,right,0,qiu,001,2020-01-17_15h11.58.903,ANT,3.1.3,60,,,3,0,3,0,1,2,2,0,96,40,1,95
1.4,right,1,0.495999813,,,,,,,stim/both.png,stim/neutralRight.png,right,0,qiu,001,2020-01-17_15h11.58.903,ANT,3.1.3,60,,,3,0,3,0,1,2,2,0,96,41,1,95
0.8,right,1,0.646999836,,,,,,,stim/both.png,stim/incongRight.png,right,0,qiu,001,2020-01-17_15h11.58.903,ANT,3.1.3,60,,,3,0,3,0,1,2,2,0,96,25,1,95
1.4,right,1,0.529000044,,,,,,,stim/blank.png,stim/incongLeft.png,right,180,qiu,001,2020-01-17_15h11.58.903,ANT,3.1.3,60,,,3,0,3,0,1,2,2,0,96,23,1,95
1.15,right,1,0.412999868,,,,,,,stim/both.png,stim/neutralRight.png,right,0,qiu,001,2020-01-17_15h11.58.903,ANT,3.1.3,60,,,3,0,3,0,1,2,2,0,96,41,1,95
0.45,right,1,0.463999987,,,,,,,stim/centre.png,stim/congLeft.png,right,180,qiu,001,2020-01-17_15h11.58.903,ANT,3.1.3,60,,,3,0,3,0,1,2,2,0,96,6,1,95
1.25,right,0,0.747999907,,,,,,,stim/blank.png,stim/incongRight.png,left,180,qiu,001,2020-01-17_15h11.58.903,ANT,3.1.3,60,,,3,0,3,0,1,2,2,0,96,31,1,95
0.7,right,1,0.563999891,,,,,,,stim/lower.png,stim/neutralLeft.png,right,180,qiu,001,2020-01-17_15h11.58.903,ANT,3.1.3,60,,,3,0,3,0,1,2,2,0,96,36,1,95
1,right,1,0.595000029,,,,,,,stim/upper.png,stim/incongRight.png,right,0,qiu,001,2020-01-17_15h11.58.903,ANT,3.1.3,60,,,3,0,3,0,1,2,2,0,96,24,1,95
0.4,left,1,0.647000074,,,,,,,stim/both.png,stim/congRight.png,left,180,qiu,001,2020-01-17_15h11.58.903,ANT,3.1.3,60,,,3,0,3,0,1,2,2,0,96,13,1,95
1.4,left,1,0.463000059,,,,,,,stim/upper.png,stim/congLeft.png,left,0,qiu,001,2020-01-17_15h11.58.903,ANT,3.1.3,60,,,3,0,3,0,1,2,2,0,96,0,1,95
0.85,left,1,0.447000027,,,,,,,stim/blank.png,stim/congRight.png,left,180,qiu,001,2020-01-17_15h11.58.903,ANT,3.1.3,60,,,3,0,3,0,1,2,2,0,96,15,1,95
1.05,right,1,0.529000044,,,,,,,stim/blank.png,stim/neutralRight.png,right,0,qiu,001,2020-01-17_15h11.58.903,ANT,3.1.3,60,,,3,0,3,0,1,2,2,0,96,43,1,95
0.95,left,1,0.480999947,,,,,,,stim/upper.png,stim/neutralLeft.png,left,0,qiu,001,2020-01-17_15h11.58.903,ANT,3.1.3,60,,,3,0,3,0,1,2,2,0,96,32,1,95
1.4,left,1,0.496999979,,,,,,,stim/blank.png,stim/congLeft.png,left,0,qiu,001,2020-01-17_15h11.58.903,ANT,3.1.3,60,,,3,0,3,0,1,2,2,0,96,3,1,95
0.8,right,1,0.463000059,,,,,,,stim/both.png,stim/congLeft.png,right,180,qiu,001,2020-01-17_15h11.58.903,ANT,3.1.3,60,,,3,0,3,0,1,2,2,0,96,5,1,95
1.55,right,0,0.580000162,,,,,,,stim/blank.png,stim/neutralRight.png,left,180,qiu,001,2020-01-17_15h11.58.903,ANT,3.1.3,60,,,3,0,3,0,1,2,2,0,96,47,1,95
1.3,right,1,0.398999929,,,,,,,stim/upper.png,stim/neutralRight.png,right,0,qiu,001,2020-01-17_15h11.58.903,ANT,3.1.3,60,,,3,0,3,0,1,2,2,0,96,40,1,95
0.65,left,1,0.447999954,,,,,,,stim/both.png,stim/congLeft.png,left,0,qiu,001,2020-01-17_15h11.58.903,ANT,3.1.3,60,,,3,0,3,0,1,2,2,0,96,1,1,95
0.7,right,0,0.463000059,,,,,,,stim/both.png,stim/incongLeft.png,left,0,qiu,001,2020-01-17_15h11.58.903,ANT,3.1.3,60,,,3,0,3,0,1,2,2,0,96,17,1,95
1.55,left,1,0.496999979,,,,,,,stim/centre.png,stim/neutralLeft.png,left,0,qiu,001,2020-01-17_15h11.58.903,ANT,3.1.3,60,,,3,0,3,0,1,2,2,0,96,34,1,95
1.35,right,1,0.53000021,,,,,,,stim/both.png,stim/neutralLeft.png,right,180,qiu,001,2020-01-17_15h11.58.903,ANT,3.1.3,60,,,3,0,3,0,1,2,2,0,96,37,1,95
1.25,right,1,0.430999994,,,,,,,stim/centre.png,stim/congRight.png,right,0,qiu,001,2020-01-17_15h11.58.903,ANT,3.1.3,60,,,3,0,3,0,1,2,2,0,96,10,1,95
0.6,right,1,0.56400013,,,,,,,stim/centre.png,stim/incongLeft.png,right,180,qiu,001,2020-01-17_15h11.58.903,ANT,3.1.3,60,,,3,0,3,0,1,2,2,0,96,22,1,95
1.5,right,0,0.714999914,,,,,,,stim/blank.png,stim/incongLeft.png,left,0,qiu,001,2020-01-17_15h11.58.903,ANT,3.1.3,60,,,3,0,3,0,1,2,2,0,96,19,1,95
0.6,left,1,0.612000227,,,,,,,stim/centre.png,stim/incongRight.png,left,180,qiu,001,2020-01-17_15h11.58.903,ANT,3.1.3,60,,,3,0,3,0,1,2,2,0,96,30,1,95
1.1,right,1,0.463000059,,,,,,,stim/both.png,stim/congRight.png,right,0,qiu,001,2020-01-17_15h11.58.903,ANT,3.1.3,60,,,3,0,3,0,1,2,2,0,96,9,1,95
1.25,right,1,0.565000057,,,,,,,stim/both.png,stim/incongLeft.png,right,180,qiu,001,2020-01-17_15h11.58.903,ANT,3.1.3,60,,,3,0,3,0,1,2,2,0,96,21,1,95
1.3,right,1,0.496999979,,,,,,,stim/upper.png,stim/congRight.png,right,0,qiu,001,2020-01-17_15h11.58.903,ANT,3.1.3,60,,,3,0,3,0,1,2,2,0,96,8,1,95
1.15,right,1,0.463999987,,,,,,,stim/blank.png,stim/neutralLeft.png,right,180,qiu,001,2020-01-17_15h11.58.903,ANT,3.1.3,60,,,3,0,3,0,1,2,2,0,96,39,1,95
1.2,right,1,0.346999884,,,,,,,stim/lower.png,stim/congLeft.png,right,180,qiu,001,2020-01-17_15h11.58.903,ANT,3.1.3,60,,,3,0,3,0,1,2,2,0,96,4,1,95
0.85,left,1,0.631000042,,,,,,,stim/both.png,stim/incongRight.png,left,180,qiu,001,2020-01-17_15h11.58.903,ANT,3.1.3,60,,,3,0,3,0,1,2,2,0,96,29,1,95
1.5,left,1,0.662000179,,,,,,,stim/upper.png,stim/incongLeft.png,left,0,qiu,001,2020-01-17_15h11.58.903,ANT,3.1.3,60,,,3,0,3,0,1,2,2,0,96,16,1,95
1.5,left,1,0.463000059,,,,,,,stim/centre.png,stim/neutralRight.png,left,180,qiu,001,2020-01-17_15h11.58.903,ANT,3.1.3,60,,,3,0,3,0,1,2,2,0,96,46,1,95
0.7,left,1,0.529999971,,,,,,,stim/blank.png,stim/neutralLeft.png,left,0,qiu,001,2020-01-17_15h11.58.903,ANT,3.1.3,60,,,3,0,3,0,1,2,2,0,96,35,1,95
0.4,left,1,0.512000084,,,,,,,stim/centre.png,stim/incongLeft.png,left,0,qiu,001,2020-01-17_15h11.58.903,ANT,3.1.3,60,,,3,0,3,0,1,2,2,0,96,18,1,95
1.45,left,1,0.464999914,,,,,,,stim/centre.png,stim/congLeft.png,left,0,qiu,001,2020-01-17_15h11.58.903,ANT,3.1.3,60,,,3,0,3,0,1,2,2,0,96,2,1,95
1.25,left,1,0.546999931,,,,,,,stim/lower.png,stim/incongRight.png,left,180,qiu,001,2020-01-17_15h11.58.903,ANT,3.1.3,60,,,3,0,3,0,1,2,2,0,96,28,1,95
0.55,left,0,0.479999781,,,,,,,stim/blank.png,stim/incongRight.png,right,0,qiu,001,2020-01-17_15h11.58.903,ANT,3.1.3,60,,,3,0,3,0,1,2,2,0,96,27,1,95
1.55,left,1,0.465000153,,,,,,,stim/both.png,stim/neutralLeft.png,left,0,qiu,001,2020-01-17_15h11.58.903,ANT,3.1.3,60,,,3,0,3,0,1,2,2,0,96,33,1,95
1.1,left,1,0.529000044,,,,,,,stim/both.png,stim/neutralRight.png,left,180,qiu,001,2020-01-17_15h11.58.903,ANT,3.1.3,60,,,3,0,3,0,1,2,2,0,96,45,1,95
0.85,left,0,0.546000004,,,,,,,stim/blank.png,stim/congLeft.png,right,180,qiu,001,2020-01-17_15h11.58.903,ANT,3.1.3,60,,,3,0,3,0,1,2,2,0,96,7,1,95
0.55,right,1,0.513999939,,,,,,,stim/centre.png,stim/neutralLeft.png,right,180,qiu,001,2020-01-17_15h11.58.903,ANT,3.1.3,60,,,3,0,3,0,1,2,2,0,96,38,1,95
1.55,right,1,0.480000019,,,,,,,stim/blank.png,stim/congRight.png,right,0,qiu,001,2020-01-17_15h11.58.903,ANT,3.1.3,60,,,3,0,3,0,1,2,2,0,96,11,1,95
0.45,left,1,0.480000019,,,,,,,stim/centre.png,stim/congRight.png,left,180,qiu,001,2020-01-17_15h11.58.903,ANT,3.1.3,60,,,3,0,3,0,1,2,2,0,96,14,1,95
0.5,left,1,0.479000092,,,,,,,stim/lower.png,stim/congRight.png,left,180,qiu,001,2020-01-17_15h11.58.903,ANT,3.1.3,60,,,3,0,3,0,1,2,2,0,96,12,1,95
1.05,left,1,0.330999851,,,,,,,stim/lower.png,stim/neutralRight.png,left,180,qiu,001,2020-01-17_15h11.58.903,ANT,3.1.3,60,,,3,0,3,0,1,2,2,0,96,44,1,95
1.55,left,0,0.36500001,,,,,,,stim/lower.png,stim/incongLeft.png,right,180,qiu,001,2020-01-17_15h11.58.903,ANT,3.1.3,60,,,3,0,3,0,1,2,2,0,96,20,1,95
0.85,right,1,0.462999821,,,,,,,stim/centre.png,stim/neutralRight.png,right,0,qiu,001,2020-01-17_15h11.58.903,ANT,3.1.3,60,,,3,0,3,0,1,2,2,0,96,42,1,95
0.75,right,1,0.730000019,,,,,,,stim/centre.png,stim/incongRight.png,right,0,qiu,001,2020-01-17_15h11.58.903,ANT,3.1.3,60,,,3,0,3,0,1,2,2,0,96,26,1,95
,,,,,,,,,,,,,,qiu,001,2020-01-17_15h11.58.903,ANT,3.1.3,60,,,3,0,3,0,1,2,,,,,,
0.45,right,1,0.461999893,,,,,,,stim/centre.png,stim/congRight.png,right,0,qiu,001,2020-01-17_15h11.58.903,ANT,3.1.3,60,,,3,0,3,0,1,2,2,0,96,10,1,95
1.25,left,1,0.414000034,,,,,,,stim/upper.png,stim/neutralLeft.png,left,0,qiu,001,2020-01-17_15h11.58.903,ANT,3.1.3,60,,,3,0,3,0,1,2,2,0,96,32,1,95
0.6,right,1,0.61500001,,,,,,,stim/blank.png,stim/incongLeft.png,right,180,qiu,001,2020-01-17_15h11.58.903,ANT,3.1.3,60,,,3,0,3,0,1,2,2,0,96,23,1,95
1.1,right,1,0.478999853,,,,,,,stim/centre.png,stim/neutralRight.png,right,0,qiu,001,2020-01-17_15h11.58.903,ANT,3.1.3,60,,,3,0,3,0,1,2,2,0,96,42,1,95
1.1,right,1,0.513999939,,,,,,,stim/lower.png,stim/incongLeft.png,right,180,qiu,001,2020-01-17_15h11.58.903,ANT,3.1.3,60,,,3,0,3,0,1,2,2,0,96,20,1,95
0.6,left,1,0.480000019,,,,,,,stim/both.png,stim/congLeft.png,left,0,qiu,001,2020-01-17_15h11.58.903,ANT,3.1.3,60,,,3,0,3,0,1,2,2,0,96,1,1,95
0.65,right,1,0.513000011,,,,,,,stim/centre.png,stim/incongLeft.png,right,180,qiu,001,2020-01-17_15h11.58.903,ANT,3.1.3,60,,,3,0,3,0,1,2,2,0,96,22,1,95
0.95,left,1,0.430000067,,,,,,,stim/lower.png,stim/congRight.png,left,180,qiu,001,2020-01-17_15h11.58.903,ANT,3.1.3,60,,,3,0,3,0,1,2,2,0,96,12,1,95
0.7,right,1,0.44900012,,,,,,,stim/centre.png,stim/congLeft.png,right,180,qiu,001,2020-01-17_15h11.58.903,ANT,3.1.3,60,,,3,0,3,0,1,2,2,0,96,6,1,95
0.45,right,1,0.447999954,,,,,,,stim/blank.png,stim/congLeft.png,right,180,qiu,001,2020-01-17_15h11.58.903,ANT,3.1.3,60,,,3,0,3,0,1,2,2,0,96,7,1,95
0.65,right,1,0.58100009,,,,,,,stim/centre.png,stim/incongRight.png,right,0,qiu,001,2020-01-17_15h11.58.903,ANT,3.1.3,60,,,3,0,3,0,1,2,2,0,96,26,1,95
1.25,left,1,0.546000004,,,,,,,stim/blank.png,stim/neutralRight.png,left,180,qiu,001,2020-01-17_15h11.58.903,ANT,3.1.3,60,,,3,0,3,0,1,2,2,0,96,47,1,95
1.1,right,0,0.44900012,,,,,,,stim/centre.png,stim/neutralRight.png,left,180,qiu,001,2020-01-17_15h11.58.903,ANT,3.1.3,60,,,3,0,3,0,1,2,2,0,96,46,1,95
0.95,left,1,0.629999876,,,,,,,stim/both.png,stim/incongLeft.png,left,0,qiu,001,2020-01-17_15h11.58.903,ANT,3.1.3,60,,,3,0,3,0,1,2,2,0,96,17,1,95
0.45,right,1,0.546000004,,,,,,,stim/blank.png,stim/congRight.png,right,0,qiu,001,2020-01-17_15h11.58.903,ANT,3.1.3,60,,,3,0,3,0,1,2,2,0,96,11,1,95
0.75,left,1,0.529999971,,,,,,,stim/blank.png,stim/congRight.png,left,180,qiu,001,2020-01-17_15h11.58.903,ANT,3.1.3,60,,,3,0,3,0,1,2,2,0,96,15,1,95
0.9,right,1,0.362999916,,,,,,,stim/both.png,stim/congLeft.png,right,180,qiu,001,2020-01-17_15h11.58.903,ANT,3.1.3,60,,,3,0,3,0,1,2,2,0,96,5,1,95
0.65,right,0,0.380000114,,,,,,,stim/both.png,stim/incongRight.png,left,180,qiu,001,2020-01-17_15h11.58.903,ANT,3.1.3,60,,,3,0,3,0,1,2,2,0,96,29,1,95
0.4,right,1,0.631000042,,,,,,,stim/both.png,stim/incongLeft.png,right,180,qiu,001,2020-01-17_15h11.58.903,ANT,3.1.3,60,,,3,0,3,0,1,2,2,0,96,21,1,95
0.65,right,1,0.480000019,,,,,,,stim/lower.png,stim/neutralLeft.png,right,180,qiu,001,2020-01-17_15h11.58.903,ANT,3.1.3,60,,,3,0,3,0,1,2,2,0,96,36,1,95
1.5,right,1,0.563999891,,,,,,,stim/blank.png,stim/neutralLeft.png,right,180,qiu,001,2020-01-17_15h11.58.903,ANT,3.1.3,60,,,3,0,3,0,1,2,2,0,96,39,1,95
0.8,left,1,0.413000107,,,,,,,stim/lower.png,stim/neutralRight.png,left,180,qiu,001,2020-01-17_15h11.58.903,ANT,3.1.3,60,,,3,0,3,0,1,2,2,0,96,44,1,95
0.8,right,1,0.647000074,,,,,,,stim/blank.png,stim/incongRight.png,right,0,qiu,001,2020-01-17_15h11.58.903,ANT,3.1.3,60,,,3,0,3,0,1,2,2,0,96,27,1,95
1.3,right,1,0.430999994,,,,,,,stim/lower.png,stim/congLeft.png,right,180,qiu,001,2020-01-17_15h11.58.903,ANT,3.1.3,60,,,3,0,3,0,1,2,2,0,96,4,1,95
1.25,left,1,0.478999853,,,,,,,stim/blank.png,stim/neutralLeft.png,left,0,qiu,001,2020-01-17_15h11.58.903,ANT,3.1.3,60,,,3,0,3,0,1,2,2,0,96,35,1,95
1.1,right,1,0.530999899,,,,,,,stim/upper.png,stim/neutralRight.png,right,0,qiu,001,2020-01-17_15h11.58.903,ANT,3.1.3,60,,,3,0,3,0,1,2,2,0,96,40,1,95
1.2,left,1,0.664000034,,,,,,,stim/blank.png,stim/incongRight.png,left,180,qiu,001,2020-01-17_15h11.58.903,ANT,3.1.3,60,,,3,0,3,0,1,2,2,0,96,31,1,95
1,left,1,0.463999987,,,,,,,stim/blank.png,stim/congLeft.png,left,0,qiu,001,2020-01-17_15h11.58.903,ANT,3.1.3,60,,,3,0,3,0,1,2,2,0,96,3,1,95
0.65,right,1,0.629999876,,,,,,,stim/upper.png,stim/incongRight.png,right,0,qiu,001,2020-01-17_15h11.58.903,ANT,3.1.3,60,,,3,0,3,0,1,2,2,0,96,24,1,95
1.4,left,1,0.59800005,,,,,,,stim/centre.png,stim/incongRight.png,left,180,qiu,001,2020-01-17_15h11.58.903,ANT,3.1.3,60,,,3,0,3,0,1,2,2,0,96,30,1,95
1.05,left,1,0.595999956,,,,,,,stim/upper.png,stim/incongLeft.png,left,0,qiu,001,2020-01-17_15h11.58.903,ANT,3.1.3,60,,,3,0,3,0,1,2,2,0,96,16,1,95
0.55,left,1,0.563999891,,,,,,,stim/blank.png,stim/incongLeft.png,left,0,qiu,001,2020-01-17_15h11.58.903,ANT,3.1.3,60,,,3,0,3,0,1,2,2,0,96,19,1,95
1.35,right,1,0.463999987,,,,,,,stim/centre.png,stim/neutralLeft.png,right,180,qiu,001,2020-01-17_15h11.58.903,ANT,3.1.3,60,,,3,0,3,0,1,2,2,0,96,38,1,95
0.6,right,1,0.465000153,,,,,,,stim/upper.png,stim/congRight.png,right,0,qiu,001,2020-01-17_15h11.58.903,ANT,3.1.3,60,,,3,0,3,0,1,2,2,0,96,8,1,95
0.8,right,1,0.463000059,,,,,,,stim/both.png,stim/neutralRight.png,right,0,qiu,001,2020-01-17_15h11.58.903,ANT,3.1.3,60,,,3,0,3,0,1,2,2,0,96,41,1,95
0.5,left,1,0.480000019,,,,,,,stim/upper.png,stim/congLeft.png,left,0,qiu,001,2020-01-17_15h11.58.903,ANT,3.1.3,60,,,3,0,3,0,1,2,2,0,96,0,1,95
0.45,left,1,0.478999853,,,,,,,stim/centre.png,stim/congRight.png,left,180,qiu,001,2020-01-17_15h11.58.903,ANT,3.1.3,60,,,3,0,3,0,1,2,2,0,96,14,1,95
1.2,left,1,0.380000114,,,,,,,stim/both.png,stim/neutralLeft.png,left,0,qiu,001,2020-01-17_15h11.58.903,ANT,3.1.3,60,,,3,0,3,0,1,2,2,0,96,33,1,95
1.4,left,0,0.414000034,,,,,,,stim/both.png,stim/incongRight.png,right,0,qiu,001,2020-01-17_15h11.58.903,ANT,3.1.3,60,,,3,0,3,0,1,2,2,0,96,25,1,95
1.4,right,1,0.414999962,,,,,,,stim/both.png,stim/congRight.png,right,0,qiu,001,2020-01-17_15h11.58.903,ANT,3.1.3,60,,,3,0,3,0,1,2,2,0,96,9,1,95
1,left,1,0.462999821,,,,,,,stim/both.png,stim/congRight.png,left,180,qiu,001,2020-01-17_15h11.58.903,ANT,3.1.3,60,,,3,0,3,0,1,2,2,0,96,13,1,95
0.4,left,1,0.480999947,,,,,,,stim/centre.png,stim/neutralLeft.png,left,0,qiu,001,2020-01-17_15h11.58.903,ANT,3.1.3,60,,,3,0,3,0,1,2,2,0,96,34,1,95
1.5,right,1,0.514999866,,,,,,,stim/both.png,stim/neutralLeft.png,right,180,qiu,001,2020-01-17_15h11.58.903,ANT,3.1.3,60,,,3,0,3,0,1,2,2,0,96,37,1,95
0.5,left,1,0.463999987,,,,,,,stim/centre.png,stim/congLeft.png,left,0,qiu,001,2020-01-17_15h11.58.903,ANT,3.1.3,60,,,3,0,3,0,1,2,2,0,96,2,1,95
0.85,right,1,0.499000072,,,,,,,stim/blank.png,stim/neutralRight.png,right,0,qiu,001,2020-01-17_15h11.58.903,ANT,3.1.3,60,,,3,0,3,0,1,2,2,0,96,43,1,95
1.3,right,0,0.396000147,,,,,,,stim/centre.png,stim/incongLeft.png,left,0,qiu,001,2020-01-17_15h11.58.903,ANT,3.1.3,60,,,3,0,3,0,1,2,2,0,96,18,1,95
1.45,left,1,0.546999931,,,,,,,stim/lower.png,stim/incongRight.png,left,180,qiu,001,2020-01-17_15h11.58.903,ANT,3.1.3,60,,,3,0,3,0,1,2,2,0,96,28,1,95
1.25,left,1,0.463999987,,,,,,,stim/both.png,stim/neutralRight.png,left,180,qiu,001,2020-01-17_15h11.58.903,ANT,3.1.3,60,,,3,0,3,0,1,2,2,0,96,45,1,95
0.55,left,1,0.529000044,,,,,,,stim/blank.png,stim/congRight.png,left,180,qiu,001,2020-01-17_15h11.58.903,ANT,3.1.3,60,,,3,0,3,0,1,2,2,0,96,15,1,95
1.35,left,1,0.662999868,,,,,,,stim/blank.png,stim/incongLeft.png,left,0,qiu,001,2020-01-17_15h11.58.903,ANT,3.1.3,60,,,3,0,3,0,1,2,2,0,96,19,1,95
0.9,left,1,0.512000084,,,,,,,stim/centre.png,stim/incongLeft.png,left,0,qiu,001,2020-01-17_15h11.58.903,ANT,3.1.3,60,,,3,0,3,0,1,2,2,0,96,18,1,95
0.95,right,1,0.497999907,,,,,,,stim/both.png,stim/congRight.png,right,0,qiu,001,2020-01-17_15h11.58.903,ANT,3.1.3,60,,,3,0,3,0,1,2,2,0,96,9,1,95
1.15,right,1,0.546999931,,,,,,,stim/lower.png,stim/neutralLeft.png,right,180,qiu,001,2020-01-17_15h11.58.903,ANT,3.1.3,60,,,3,0,3,0,1,2,2,0,96,36,1,95
1.3,left,1,0.447999954,,,,,,,stim/lower.png,stim/neutralRight.png,left,180,qiu,001,2020-01-17_15h11.58.903,ANT,3.1.3,60,,,3,0,3,0,1,2,2,0,96,44,1,95
0.85,right,1,0.513000011,,,,,,,stim/centre.png,stim/congLeft.png,right,180,qiu,001,2020-01-17_15h11.58.903,ANT,3.1.3,60,,,3,0,3,0,1,2,2,0,96,6,1,95
1.05,right,1,0.480000019,,,,,,,stim/upper.png,stim/neutralRight.png,right,0,qiu,001,2020-01-17_15h11.58.903,ANT,3.1.3,60,,,3,0,3,0,1,2,2,0,96,40,1,95
0.45,right,1,0.579999924,,,,,,,stim/centre.png,stim/incongLeft.png,right,180,qiu,001,2020-01-17_15h11.58.903,ANT,3.1.3,60,,,3,0,3,0,1,2,2,0,96,22,1,95
0.8,left,1,0.546000004,,,,,,,stim/blank.png,stim/incongRight.png,left,180,qiu,001,2020-01-17_15h11.58.903,ANT,3.1.3,60,,,3,0,3,0,1,2,2,0,96,31,1,95
1.25,left,1,0.447999954,,,,,,,stim/both.png,stim/congLeft.png,left,0,qiu,001,2020-01-17_15h11.58.903,ANT,3.1.3,60,,,3,0,3,0,1,2,2,0,96,1,1,95
1.2,left,1,0.430999994,,,,,,,stim/centre.png,stim/neutralLeft.png,left,0,qiu,001,2020-01-17_15h11.58.903,ANT,3.1.3,60,,,3,0,3,0,1,2,2,0,96,34,1,95
0.8,left,1,0.579999924,,,,,,,stim/both.png,stim/neutralRight.png,left,180,qiu,001,2020-01-17_15h11.58.903,ANT,3.1.3,60,,,3,0,3,0,1,2,2,0,96,45,1,95
0.6,right,1,0.597000122,,,,,,,stim/blank.png,stim/incongLeft.png,right,180,qiu,001,2020-01-17_15h11.58.903,ANT,3.1.3,60,,,3,0,3,0,1,2,2,0,96,23,1,95
0.95,right,1,0.447000027,,,,,,,stim/centre.png,stim/neutralLeft.png,right,180,qiu,001,2020-01-17_15h11.58.903,ANT,3.1.3,60,,,3,0,3,0,1,2,2,0,96,38,1,95
0.6,left,1,0.462000132,,,,,,,stim/both.png,stim/congRight.png,left,180,qiu,001,2020-01-17_15h11.58.903,ANT,3.1.3,60,,,3,0,3,0,1,2,2,0,96,13,1,95
1.1,left,1,0.414000034,,,,,,,stim/upper.png,stim/neutralLeft.png,left,0,qiu,001,2020-01-17_15h11.58.903,ANT,3.1.3,60,,,3,0,3,0,1,2,2,0,96,32,1,95
1.15,right,1,0.463000059,,,,,,,stim/both.png,stim/neutralLeft.png,right,180,qiu,001,2020-01-17_15h11.58.903,ANT,3.1.3,60,,,3,0,3,0,1,2,2,0,96,37,1,95
0.5,left,1,0.580000162,,,,,,,stim/both.png,stim/incongLeft.png,left,0,qiu,001,2020-01-17_15h11.58.903,ANT,3.1.3,60,,,3,0,3,0,1,2,2,0,96,17,1,95
0.75,left,1,0.480999947,,,,,,,stim/blank.png,stim/neutralLeft.png,left,0,qiu,001,2020-01-17_15h11.58.903,ANT,3.1.3,60,,,3,0,3,0,1,2,2,0,96,35,1,95
1.25,right,1,0.546999931,,,,,,,stim/blank.png,stim/congRight.png,right,0,qiu,001,2020-01-17_15h11.58.903,ANT,3.1.3,60,,,3,0,3,0,1,2,2,0,96,11,1,95
0.6,left,1,0.463000059,,,,,,,stim/blank.png,stim/congLeft.png,left,0,qiu,001,2020-01-17_15h11.58.903,ANT,3.1.3,60,,,3,0,3,0,1,2,2,0,96,3,1,95
0.55,left,1,0.565000057,,,,,,,stim/centre.png,stim/incongRight.png,left,180,qiu,001,2020-01-17_15h11.58.903,ANT,3.1.3,60,,,3,0,3,0,1,2,2,0,96,30,1,95
0.55,right,1,0.563999891,,,,,,,stim/upper.png,stim/incongRight.png,right,0,qiu,001,2020-01-17_15h11.58.903,ANT,3.1.3,60,,,3,0,3,0,1,2,2,0,96,24,1,95
0.7,right,1,0.496000051,,,,,,,stim/lower.png,stim/incongLeft.png,right,180,qiu,001,2020-01-17_15h11.58.903,ANT,3.1.3,60,,,3,0,3,0,1,2,2,0,96,20,1,95
0.4,right,1,0.697000027,,,,,,,stim/centre.png,stim/incongRight.png,right,0,qiu,001,2020-01-17_15h11.58.903,ANT,3.1.3,60,,,3,0,3,0,1,2,2,0,96,26,1,95
0.95,right,1,0.498000145,,,,,,,stim/blank.png,stim/neutralLeft.png,right,180,qiu,001,2020-01-17_15h11.58.903,ANT,3.1.3,60,,,3,0,3,0,1,2,2,0,96,39,1,95
0.55,right,1,0.531000137,,,,,,,stim/both.png,stim/incongRight.png,right,0,qiu,001,2020-01-17_15h11.58.903,ANT,3.1.3,60,,,3,0,3,0,1,2,2,0,96,25,1,95
0.5,right,1,0.380000114,,,,,,,stim/both.png,stim/congLeft.png,right,180,qiu,001,2020-01-17_15h11.58.903,ANT,3.1.3,60,,,3,0,3,0,1,2,2,0,96,5,1,95
1.35,right,1,0.529999971,,,,,,,stim/both.png,stim/incongLeft.png,right,180,qiu,001,2020-01-17_15h11.58.903,ANT,3.1.3,60,,,3,0,3,0,1,2,2,0,96,21,1,95
0.75,left,1,0.496999979,,,,,,,stim/upper.png,stim/congLeft.png,left,0,qiu,001,2020-01-17_15h11.58.903,ANT,3.1.3,60,,,3,0,3,0,1,2,2,0,96,0,1,95
1.3,left,1,0.430999994,,,,,,,stim/lower.png,stim/congRight.png,left,180,qiu,001,2020-01-17_15h11.58.903,ANT,3.1.3,60,,,3,0,3,0,1,2,2,0,96,12,1,95
1.5,left,1,0.364000082,,,,,,,stim/centre.png,stim/neutralRight.png,left,180,qiu,001,2020-01-17_15h11.58.903,ANT,3.1.3,60,,,3,0,3,0,1,2,2,0,96,46,1,95
1.5,left,1,0.56400013,,,,,,,stim/upper.png,stim/incongLeft.png,left,0,qiu,001,2020-01-17_15h11.58.903,ANT,3.1.3,60,,,3,0,3,0,1,2,2,0,96,16,1,95
0.65,right,1,0.647000074,,,,,,,stim/both.png,stim/neutralRight.png,right,0,qiu,001,2020-01-17_15h11.58.903,ANT,3.1.3,60,,,3,0,3,0,1,2,2,0,96,41,1,95
1.25,right,1,0.379999876,,,,,,,stim/upper.png,stim/congRight.png,right,0,qiu,001,2020-01-17_15h11.58.903,ANT,3.1.3,60,,,3,0,3,0,1,2,2,0,96,8,1,95
1.55,left,1,0.463999987,,,,,,,stim/centre.png,stim/congRight.png,left,180,qiu,001,2020-01-17_15h11.58.903,ANT,3.1.3,60,,,3,0,3,0,1,2,2,0,96,14,1,95
0.6,right,1,0.582000017,,,,,,,stim/blank.png,stim/incongRight.png,right,0,qiu,001,2020-01-17_15h11.58.903,ANT,3.1.3,60,,,3,0,3,0,1,2,2,0,96,27,1,95
0.7,right,1,0.445999861,,,,,,,stim/centre.png,stim/congRight.png,right,0,qiu,001,2020-01-17_15h11.58.903,ANT,3.1.3,60,,,3,0,3,0,1,2,2,0,96,10,1,95
0.95,right,1,0.465000153,,,,,,,stim/blank.png,stim/neutralRight.png,right,0,qiu,001,2020-01-17_15h11.58.903,ANT,3.1.3,60,,,3,0,3,0,1,2,2,0,96,43,1,95
0.95,left,1,0.465999842,,,,,,,stim/blank.png,stim/neutralRight.png,left,180,qiu,001,2020-01-17_15h11.58.903,ANT,3.1.3,60,,,3,0,3,0,1,2,2,0,96,47,1,95
0.65,right,1,0.547999859,,,,,,,stim/blank.png,stim/congLeft.png,right,180,qiu,001,2020-01-17_15h11.58.903,ANT,3.1.3,60,,,3,0,3,0,1,2,2,0,96,7,1,95
0.7,left,1,0.463000059,,,,,,,stim/centre.png,stim/congLeft.png,left,0,qiu,001,2020-01-17_15h11.58.903,ANT,3.1.3,60,,,3,0,3,0,1,2,2,0,96,2,1,95
1.1,right,0,0.479000092,,,,,,,stim/both.png,stim/incongRight.png,left,180,qiu,001,2020-01-17_15h11.58.903,ANT,3.1.3,60,,,3,0,3,0,1,2,2,0,96,29,1,95
0.75,left,1,0.447000027,,,,,,,stim/both.png,stim/neutralLeft.png,left,0,qiu,001,2020-01-17_15h11.58.903,ANT,3.1.3,60,,,3,0,3,0,1,2,2,0,96,33,1,95
1.15,right,1,0.531000137,,,,,,,stim/centre.png,stim/neutralRight.png,right,0,qiu,001,2020-01-17_15h11.58.903,ANT,3.1.3,60,,,3,0,3,0,1,2,2,0,96,42,1,95
1.4,right,1,0.463999987,,,,,,,stim/lower.png,stim/congLeft.png,right,180,qiu,001,2020-01-17_15h11.58.903,ANT,3.1.3,60,,,3,0,3,0,1,2,2,0,96,4,1,95
0.7,left,1,0.546999931,,,,,,,stim/lower.png,stim/incongRight.png,left,180,qiu,001,2020-01-17_15h11.58.903,ANT,3.1.3,60,,,3,0,3,0,1,2,2,0,96,28,1,95
,,,,,,,,,,,,,,qiu,001,2020-01-17_15h11.58.903,ANT,3.1.3,60,,,3,0,3,0,1,2,,,,,,
0.4,left,1,0.54700017,,,,,,,stim/upper.png,stim/incongLeft.png,left,0,qiu,001,2020-01-17_15h11.58.903,ANT,3.1.3,60,,,3,0,3,0,1,2,2,0,96,16,1,95
0.9,right,1,0.447000027,,,,,,,stim/both.png,stim/neutralRight.png,right,0,qiu,001,2020-01-17_15h11.58.903,ANT,3.1.3,60,,,3,0,3,0,1,2,2,0,96,41,1,95
0.55,right,1,0.661999941,,,,,,,stim/both.png,stim/incongLeft.png,right,180,qiu,001,2020-01-17_15h11.58.903,ANT,3.1.3,60,,,3,0,3,0,1,2,2,0,96,21,1,95
0.8,right,1,0.396000147,,,,,,,stim/centre.png,stim/congLeft.png,right,180,qiu,001,2020-01-17_15h11.58.903,ANT,3.1.3,60,,,3,0,3,0,1,2,2,0,96,6,1,95
1.15,left,1,0.56400013,,,,,,,stim/blank.png,stim/incongRight.png,left,180,qiu,001,2020-01-17_15h11.58.903,ANT,3.1.3,60,,,3,0,3,0,1,2,2,0,96,31,1,95
1.25,right,1,0.447000027,,,,,,,stim/blank.png,stim/neutralLeft.png,right,180,qiu,001,2020-01-17_15h11.58.903,ANT,3.1.3,60,,,3,0,3,0,1,2,2,0,96,39,1,95
0.5,left,1,0.481000185,,,,,,,stim/centre.png,stim/congRight.png,left,180,qiu,001,2020-01-17_15h11.58.903,ANT,3.1.3,60,,,3,0,3,0,1,2,2,0,96,14,1,95
1.35,right,1,0.479000092,,,,,,,stim/lower.png,stim/incongLeft.png,right,180,qiu,001,2020-01-17_15h11.58.903,ANT,3.1.3,60,,,3,0,3,0,1,2,2,0,96,20,1,95
1,left,1,0.447000027,,,,,,,stim/both.png,stim/congLeft.png,left,0,qiu,001,2020-01-17_15h11.58.903,ANT,3.1.3,60,,,3,0,3,0,1,2,2,0,96,1,1,95
0.45,left,1,0.447999954,,,,,,,stim/both.png,stim/neutralLeft.png,left,0,qiu,001,2020-01-17_15h11.58.903,ANT,3.1.3,60,,,3,0,3,0,1,2,2,0,96,33,1,95
1,right,1,0.481000185,,,,,,,stim/both.png,stim/neutralLeft.png,right,180,qiu,001,2020-01-17_15h11.58.903,ANT,3.1.3,60,,,3,0,3,0,1,2,2,0,96,37,1,95
0.5,right,1,0.597000122,,,,,,,stim/upper.png,stim/incongRight.png,right,0,qiu,001,2020-01-17_15h11.58.903,ANT,3.1.3,60,,,3,0,3,0,1,2,2,0,96,24,1,95
0.8,left,1,0.480000019,,,,,,,stim/upper.png,stim/neutralLeft.png,left,0,qiu,001,2020-01-17_15h11.58.903,ANT,3.1.3,60,,,3,0,3,0,1,2,2,0,96,32,1,95
0.7,right,1,0.465000153,,,,,,,stim/both.png,stim/congRight.png,right,0,qiu,001,2020-01-17_15h11.58.903,ANT,3.1.3,60,,,3,0,3,0,1,2,2,0,96,9,1,95
1.55,left,1,0.498000145,,,,,,,stim/centre.png,stim/neutralLeft.png,left,0,qiu,001,2020-01-17_15h11.58.903,ANT,3.1.3,60,,,3,0,3,0,1,2,2,0,96,34,1,95
0.6,left,1,0.56400013,,,,,,,stim/centre.png,stim/incongLeft.png,left,0,qiu,001,2020-01-17_15h11.58.903,ANT,3.1.3,60,,,3,0,3,0,1,2,2,0,96,18,1,95
0.6,left,1,0.447999954,,,,,,,stim/both.png,stim/neutralRight.png,left,180,qiu,001,2020-01-17_15h11.58.903,ANT,3.1.3,60,,,3,0,3,0,1,2,2,0,96,45,1,95
0.85,left,1,0.479000092,,,,,,,stim/blank.png,stim/congLeft.png,left,0,qiu,001,2020-01-17_15h11.58.903,ANT,3.1.3,60,,,3,0,3,0,1,2,2,0,96,3,1,95
0.5,left,1,0.496999979,,,,,,,stim/blank.png,stim/incongLeft.png,left,0,qiu,001,2020-01-17_15h11.58.903,ANT,3.1.3,60,,,3,0,3,0,1,2,2,0,96,19,1,95
1.1,right,1,0.563999891,,,,,,,stim/centre.png,stim/incongLeft.png,right,180,qiu,001,2020-01-17_15h11.58.903,ANT,3.1.3,60,,,3,0,3,0,1,2,2,0,96,22,1,95
1.55,left,1,0.479000092,,,,,,,stim/blank.png,stim/neutralRight.png,left,180,qiu,001,2020-01-17_15h11.58.903,ANT,3.1.3,60,,,3,0,3,0,1,2,2,0,96,47,1,95
0.5,left,1,0.530999899,,,,,,,stim/centre.png,stim/incongRight.png,left,180,qiu,001,2020-01-17_15h11.58.903,ANT,3.1.3,60,,,3,0,3,0,1,2,2,0,96,30,1,95
0.4,left,1,0.447000027,,,,,,,stim/lower.png,stim/congRight.png,left,180,qiu,001,2020-01-17_15h11.58.903,ANT,3.1.3,60,,,3,0,3,0,1,2,2,0,96,12,1,95
0.5,left,0,0.414000034,,,,,,,stim/blank.png,stim/congLeft.png,right,180,qiu,001,2020-01-17_15h11.58.903,ANT,3.1.3,60,,,3,0,3,0,1,2,2,0,96,7,1,95
0.6,right,1,0.514000177,,,,,,,stim/blank.png,stim/neutralRight.png,right,0,qiu,001,2020-01-17_15h11.58.903,ANT,3.1.3,60,,,3,0,3,0,1,2,2,0,96,43,1,95
1.2,right,1,0.496999979,,,,,,,stim/centre.png,stim/incongRight.png,right,0,qiu,001,2020-01-17_15h11.58.903,ANT,3.1.3,60,,,3,0,3,0,1,2,2,0,96,26,1,95
1.45,left,1,0.548000097,,,,,,,stim/both.png,stim/incongLeft.png,left,0,qiu,001,2020-01-17_15h11.58.903,ANT,3.1.3,60,,,3,0,3,0,1,2,2,0,96,17,1,95
0.55,left,1,0.498000145,,,,,,,stim/blank.png,stim/neutralLeft.png,left,0,qiu,001,2020-01-17_15h11.58.903,ANT,3.1.3,60,,,3,0,3,0,1,2,2,0,96,35,1,95
1.05,left,1,0.480999947,,,,,,,stim/upper.png,stim/congLeft.png,left,0,qiu,001,2020-01-17_15h11.58.903,ANT,3.1.3,60,,,3,0,3,0,1,2,2,0,96,0,1,95
0.5,right,1,0.830999851,,,,,,,stim/blank.png,stim/incongLeft.png,right,180,qiu,001,2020-01-17_15h11.58.903,ANT,3.1.3,60,,,3,0,3,0,1,2,2,0,96,23,1,95
1.55,left,1,0.528999805,,,,,,,stim/blank.png,stim/congRight.png,left,180,qiu,001,2020-01-17_15h11.58.903,ANT,3.1.3,60,,,3,0,3,0,1,2,2,0,96,15,1,95
0.85,right,1,0.447000027,,,,,,,stim/lower.png,stim/congLeft.png,right,180,qiu,001,2020-01-17_15h11.58.903,ANT,3.1.3,60,,,3,0,3,0,1,2,2,0,96,4,1,95
1.45,right,1,0.595999956,,,,,,,stim/blank.png,stim/incongRight.png,right,0,qiu,001,2020-01-17_15h11.58.903,ANT,3.1.3,60,,,3,0,3,0,1,2,2,0,96,27,1,95
1.05,right,0,0.379999876,,,,,,,stim/lower.png,stim/incongRight.png,left,180,qiu,001,2020-01-17_15h11.58.903,ANT,3.1.3,60,,,3,0,3,0,1,2,2,0,96,28,1,95
1.2,left,1,0.447000027,,,,,,,stim/centre.png,stim/congLeft.png,left,0,qiu,001,2020-01-17_15h11.58.903,ANT,3.1.3,60,,,3,0,3,0,1,2,2,0,96,2,1,95
1.45,right,1,0.529000044,,,,,,,stim/centre.png,stim/neutralRight.png,right,0,qiu,001,2020-01-17_15h11.58.903,ANT,3.1.3,60,,,3,0,3,0,1,2,2,0,96,42,1,95
0.65,right,1,0.412999868,,,,,,,stim/centre.png,stim/congRight.png,right,0,qiu,001,2020-01-17_15h11.58.903,ANT,3.1.3,60,,,3,0,3,0,1,2,2,0,96,10,1,95
0.8,right,1,0.380999804,,,,,,,stim/upper.png,stim/neutralRight.png,right,0,qiu,001,2020-01-17_15h11.58.903,ANT,3.1.3,60,,,3,0,3,0,1,2,2,0,96,40,1,95
1.35,left,1,0.746000051,,,,,,,stim/both.png,stim/incongRight.png,left,180,qiu,001,2020-01-17_15h11.58.903,ANT,3.1.3,60,,,3,0,3,0,1,2,2,0,96,29,1,95
0.65,left,1,0.463999987,,,,,,,stim/lower.png,stim/neutralRight.png,left,180,qiu,001,2020-01-17_15h11.58.903,ANT,3.1.3,60,,,3,0,3,0,1,2,2,0,96,44,1,95
0.55,right,1,0.54700017,,,,,,,stim/blank.png,stim/congRight.png,right,0,qiu,001,2020-01-17_15h11.58.903,ANT,3.1.3,60,,,3,0,3,0,1,2,2,0,96,11,1,95
0.5,right,1,0.59800005,,,,,,,stim/both.png,stim/incongRight.png,right,0,qiu,001,2020-01-17_15h11.58.903,ANT,3.1.3,60,,,3,0,3,0,1,2,2,0,96,25,1,95
1.5,right,1,0.463999987,,,,,,,stim/lower.png,stim/neutralLeft.png,right,180,qiu,001,2020-01-17_15h11.58.903,ANT,3.1.3,60,,,3,0,3,0,1,2,2,0,96,36,1,95
0.95,left,1,0.597999811,,,,,,,stim/both.png,stim/congRight.png,left,180,qiu,001,2020-01-17_15h11.58.903,ANT,3.1.3,60,,,3,0,3,0,1,2,2,0,96,13,1,95
1.5,left,1,0.531999826,,,,,,,stim/centre.png,stim/neutralRight.png,left,180,qiu,001,2020-01-17_15h11.58.903,ANT,3.1.3,60,,,3,0,3,0,1,2,2,0,96,46,1,95
1.25,right,1,0.531000137,,,,,,,stim/centre.png,stim/neutralLeft.png,right,180,qiu,001,2020-01-17_15h11.58.903,ANT,3.1.3,60,,,3,0,3,0,1,2,2,0,96,38,1,95
0.5,right,1,0.446999788,,,,,,,stim/upper.png,stim/congRight.png,right,0,qiu,001,2020-01-17_15h11.58.903,ANT,3.1.3,60,,,3,0,3,0,1,2,2,0,96,8,1,95
1.4,right,1,0.496999979,,,,,,,stim/both.png,stim/congLeft.png,right,180,qiu,001,2020-01-17_15h11.58.903,ANT,3.1.3,60,,,3,0,3,0,1,2,2,0,96,5,1,95
0.4,right,1,0.531000137,,,,,,,stim/blank.png,stim/neutralRight.png,right,0,qiu,001,2020-01-17_15h11.58.903,ANT,3.1.3,60,,,3,0,3,0,1,2,2,0,96,43,1,95
0.5,right,0,0.379999876,,,,,,,stim/both.png,stim/incongRight.png,left,180,qiu,001,2020-01-17_15h11.58.903,ANT,3.1.3,60,,,3,0,3,0,1,2,2,0,96,29,1,95
1,left,1,0.381000042,,,,,,,stim/upper.png,stim/congLeft.png,left,0,qiu,001,2020-01-17_15h11.58.903,ANT,3.1.3,60,,,3,0,3,0,1,2,2,0,96,0,1,95
0.95,right,1,0.579999924,,,,,,,stim/both.png,stim/neutralRight.png,right,0,qiu,001,2020-01-17_15h11.58.903,ANT,3.1.3,60,,,3,0,3,0,1,2,2,0,96,41,1,95
1.45,right,1,0.448000193,,,,,,,stim/both.png,stim/congLeft.png,right,180,qiu,001,2020-01-17_15h11.58.903,ANT,3.1.3,60,,,3,0,3,0,1,2,2,0,96,5,1,95
1.05,right,1,0.463999987,,,,,,,stim/blank.png,stim/congLeft.png,right,180,qiu,001,2020-01-17_15h11.58.903,ANT,3.1.3,60,,,3,0,3,0,1,2,2,0,96,7,1,95
1.35,left,1,0.563999891,,,,,,,stim/both.png,stim/congRight.png,left,180,qiu,001,2020-01-17_15h11.58.903,ANT,3.1.3,60,,,3,0,3,0,1,2,2,0,96,13,1,95
0.9,right,1,0.463000059,,,,,,,stim/centre.png,stim/congRight.png,right,0,qiu,001,2020-01-17_15h11.58.903,ANT,3.1.3,60,,,3,0,3,0,1,2,2,0,96,10,1,95
1.45,left,1,0.614000082,,,,,,,stim/blank.png,stim/incongRight.png,left,180,qiu,001,2020-01-17_15h11.58.903,ANT,3.1.3,60,,,3,0,3,0,1,2,2,0,96,31,1,95
1.45,left,1,0.564999819,,,,,,,stim/centre.png,stim/incongRight.png,left,180,qiu,001,2020-01-17_15h11.58.903,ANT,3.1.3,60,,,3,0,3,0,1,2,2,0,96,30,1,95
1,left,1,0.463000059,,,,,,,stim/centre.png,stim/congLeft.png,left,0,qiu,001,2020-01-17_15h11.58.903,ANT,3.1.3,60,,,3,0,3,0,1,2,2,0,96,2,1,95
1.05,left,1,0.430999994,,,,,,,stim/both.png,stim/neutralLeft.png,left,0,qiu,001,2020-01-17_15h11.58.903,ANT,3.1.3,60,,,3,0,3,0,1,2,2,0,96,33,1,95
1.15,left,0,0.346000195,,,,,,,stim/upper.png,stim/incongRight.png,right,0,qiu,001,2020-01-17_15h11.58.903,ANT,3.1.3,60,,,3,0,3,0,1,2,2,0,96,24,1,95
1.25,left,1,0.563999891,,,,,,,stim/blank.png,stim/neutralRight.png,left,180,qiu,001,2020-01-17_15h11.58.903,ANT,3.1.3,60,,,3,0,3,0,1,2,2,0,96,47,1,95
0.75,left,1,0.479999781,,,,,,,stim/lower.png,stim/incongRight.png,left,180,qiu,001,2020-01-17_15h11.58.903,ANT,3.1.3,60,,,3,0,3,0,1,2,2,0,96,28,1,95
0.4,right,1,0.597999811,,,,,,,stim/centre.png,stim/congLeft.png,right,180,qiu,001,2020-01-17_15h11.58.903,ANT,3.1.3,60,,,3,0,3,0,1,2,2,0,96,6,1,95
1.35,left,1,0.480999947,,,,,,,stim/centre.png,stim/neutralRight.png,left,180,qiu,001,2020-01-17_15h11.58.903,ANT,3.1.3,60,,,3,0,3,0,1,2,2,0,96,46,1,95
1.15,left,1,0.447999954,,,,,,,stim/blank.png,stim/congRight.png,left,180,qiu,001,2020-01-17_15h11.58.903,ANT,3.1.3,60,,,3,0,3,0,1,2,2,0,96,15,1,95
0.9,right,1,0.779999971,,,,,,,stim/centre.png,stim/incongRight.png,right,0,qiu,001,2020-01-17_15h11.58.903,ANT,3.1.3,60,,,3,0,3,0,1,2,2,0,96,26,1,95
1.2,right,1,0.478999853,,,,,,,stim/lower.png,stim/incongLeft.png,right,180,qiu,001,2020-01-17_15h11.58.903,ANT,3.1.3,60,,,3,0,3,0,1,2,2,0,96,20,1,95
0.6,left,1,0.529999971,,,,,,,stim/lower.png,stim/congRight.png,left,180,qiu,001,2020-01-17_15h11.58.903,ANT,3.1.3,60,,,3,0,3,0,1,2,2,0,96,12,1,95
1.05,left,1,0.445000172,,,,,,,stim/upper.png,stim/incongLeft.png,left,0,qiu,001,2020-01-17_15h11.58.903,ANT,3.1.3,60,,,3,0,3,0,1,2,2,0,96,16,1,95
0.75,left,1,0.529000044,,,,,,,stim/centre.png,stim/congRight.png,left,180,qiu,001,2020-01-17_15h11.58.903,ANT,3.1.3,60,,,3,0,3,0,1,2,2,0,96,14,1,95
1.4,right,1,0.595999956,,,,,,,stim/blank.png,stim/incongLeft.png,right,180,qiu,001,2020-01-17_15h11.58.903,ANT,3.1.3,60,,,3,0,3,0,1,2,2,0,96,23,1,95
0.8,left,1,0.597000122,,,,,,,stim/blank.png,stim/neutralLeft.png,left,0,qiu,001,2020-01-17_15h11.58.903,ANT,3.1.3,60,,,3,0,3,0,1,2,2,0,96,35,1,95
1.25,right,1,0.580999851,,,,,,,stim/centre.png,stim/neutralRight.png,right,0,qiu,001,2020-01-17_15h11.58.903,ANT,3.1.3,60,,,3,0,3,0,1,2,2,0,96,42,1,95
1.05,right,1,0.48300004,,,,,,,stim/lower.png,stim/neutralLeft.png,right,180,qiu,001,2020-01-17_15h11.58.903,ANT,3.1.3,60,,,3,0,3,0,1,2,2,0,96,36,1,95
1.4,right,1,0.480999947,,,,,,,stim/blank.png,stim/congRight.png,right,0,qiu,001,2020-01-17_15h11.58.903,ANT,3.1.3,60,,,3,0,3,0,1,2,2,0,96,11,1,95
0.65,left,1,0.614000082,,,,,,,stim/centre.png,stim/incongLeft.png,left,0,qiu,001,2020-01-17_15h11.58.903,ANT,3.1.3,60,,,3,0,3,0,1,2,2,0,96,18,1,95
1.3,left,1,0.531999826,,,,,,,stim/blank.png,stim/congLeft.png,left,0,qiu,001,2020-01-17_15h11.58.903,ANT,3.1.3,60,,,3,0,3,0,1,2,2,0,96,3,1,95
0.4,right,1,0.546999931,,,,,,,stim/both.png,stim/incongLeft.png,right,180,qiu,001,2020-01-17_15h11.58.903,ANT,3.1.3,60,,,3,0,3,0,1,2,2,0,96,21,1,95
0.65,right,1,0.531000137,,,,,,,stim/both.png,stim/incongRight.png,right,0,qiu,001,2020-01-17_15h11.58.903,ANT,3.1.3,60,,,3,0,3,0,1,2,2,0,96,25,1,95
0.6,left,1,0.529000044,,,,,,,stim/centre.png,stim/neutralLeft.png,left,0,qiu,001,2020-01-17_15h11.58.903,ANT,3.1.3,60,,,3,0,3,0,1,2,2,0,96,34,1,95
1.45,right,1,0.496999979,,,,,,,stim/blank.png,stim/neutralLeft.png,right,180,qiu,001,2020-01-17_15h11.58.903,ANT,3.1.3,60,,,3,0,3,0,1,2,2,0,96,39,1,95
0.5,left,1,0.59800005,,,,,,,stim/both.png,stim/neutralRight.png,left,180,qiu,001,2020-01-17_15h11.58.903,ANT,3.1.3,60,,,3,0,3,0,1,2,2,0,96,45,1,95
0.4,right,1,0.380000114,,,,,,,stim/upper.png,stim/neutralRight.png,right,0,qiu,001,2020-01-17_15h11.58.903,ANT,3.1.3,60,,,3,0,3,0,1,2,2,0,96,40,1,95
1,right,1,0.396999836,,,,,,,stim/lower.png,stim/congLeft.png,right,180,qiu,001,2020-01-17_15h11.58.903,ANT,3.1.3,60,,,3,0,3,0,1,2,2,0,96,4,1,95
0.95,right,1,0.447000027,,,,,,,stim/both.png,stim/neutralLeft.png,right,180,qiu,001,2020-01-17_15h11.58.903,ANT,3.1.3,60,,,3,0,3,0,1,2,2,0,96,37,1,95
1.25,left,1,0.498000145,,,,,,,stim/lower.png,stim/neutralRight.png,left,180,qiu,001,2020-01-17_15h11.58.903,ANT,3.1.3,60,,,3,0,3,0,1,2,2,0,96,44,1,95
0.95,left,1,0.645999908,,,,,,,stim/both.png,stim/incongLeft.png,left,0,qiu,001,2020-01-17_15h11.58.903,ANT,3.1.3,60,,,3,0,3,0,1,2,2,0,96,17,1,95
0.9,right,1,0.447000027,,,,,,,stim/upper.png,stim/congRight.png,right,0,qiu,001,2020-01-17_15h11.58.903,ANT,3.1.3,60,,,3,0,3,0,1,2,2,0,96,8,1,95
1.3,left,1,0.647000074,,,,,,,stim/blank.png,stim/incongLeft.png,left,0,qiu,001,2020-01-17_15h11.58.903,ANT,3.1.3,60,,,3,0,3,0,1,2,2,0,96,19,1,95
1.25,right,1,0.58100009,,,,,,,stim/centre.png,stim/neutralLeft.png,right,180,qiu,001,2020-01-17_15h11.58.903,ANT,3.1.3,60,,,3,0,3,0,1,2,2,0,96,38,1,95
1.5,left,1,0.479000092,,,,,,,stim/both.png,stim/congLeft.png,left,0,qiu,001,2020-01-17_15h11.58.903,ANT,3.1.3,60,,,3,0,3,0,1,2,2,0,96,1,1,95
1.3,right,1,0.563999891,,,,,,,stim/centre.png,stim/incongLeft.png,right,180,qiu,001,2020-01-17_15h11.58.903,ANT,3.1.3,60,,,3,0,3,0,1,2,2,0,96,22,1,95
0.8,left,1,0.496999979,,,,,,,stim/upper.png,stim/neutralLeft.png,left,0,qiu,001,2020-01-17_15h11.58.903,ANT,3.1.3,60,,,3,0,3,0,1,2,2,0,96,32,1,95
1.4,right,1,0.58100009,,,,,,,stim/blank.png,stim/incongRight.png,right,0,qiu,001,2020-01-17_15h11.58.903,ANT,3.1.3,60,,,3,0,3,0,1,2,2,0,96,27,1,95
0.65,right,1,0.463999987,,,,,,,stim/both.png,stim/congRight.png,right,0,qiu,001,2020-01-17_15h11.58.903,ANT,3.1.3,60,,,3,0,3,0,1,2,2,0,96,9,1,95
,,,,,,,,,,,,,,qiu,001,2020-01-17_15h11.58.903,ANT,3.1.3,60,,,3,0,3,0,1,2,,,,,,
